{
  "$schema": "https://json-schema.org/draft/2020-12/schema",
  "$id": "https://airwayai.example/forms/screening-baseline-cpap-compliance/0.1.0",
  "$comment": "projectId=prj_20260716-1544; protocol=BMJOpen_CPAP對睡眠呼吸中止症神經認知與腸道菌群影響_研究計畫書.pdf; sha256=09e25d403eefc7335ee8caea073b9aa0e26c882d83d1afc73ee952dc00f890ce",
  "title": "OSA 篩選、基線與 CPAP 依從性 eCRF",
  "type": "object",
  "additionalProperties": false,
  "properties": {
    "studySubjectCode": { "type": "string", "minLength": 1 },
    "visitDate": { "type": "string", "format": "date" },
    "visitType": { "type": "string", "enum": ["screening", "baseline", "month-3", "month-6", "month-12"] },
    "informedConsentObtained": { "type": "boolean" },
    "ageYears": { "type": "integer", "minimum": 30, "maximum": 65 },
    "sex": { "type": "string", "enum": ["F", "M", "U", "OTHER"] },
    "educationYears": { "type": "number", "minimum": 0 },
    "medicalHistory": { "type": "string", "maxLength": 2000 },
    "medicationUse": { "type": "string", "maxLength": 2000 },
    "occupation": { "type": "string", "maxLength": 300 },
    "psgAhi": { "type": "number", "minimum": 15 },
    "cpapToleratedOneNight": { "type": "boolean" },
    "otherTrialWithin3Months": { "type": "boolean" },
    "ableTestsAndFollowUp": { "type": "boolean" },
    "hasSevereSystemicDisease": { "type": "boolean" },
    "hasPsychiatricCondition": { "type": "boolean" },
    "hasNeurologicalDisease": { "type": "boolean" },
    "hasOtherSleepDisorder": { "type": "boolean" },
    "hasAlcoholDrugOrSedativeIssue": { "type": "boolean" },
    "hasPriorOsaTherapy": { "type": "boolean" },
    "hasMmseBelow24": { "type": "boolean" },
    "isLeftHanded": { "type": "boolean" },
    "hasMriContraindication": { "type": "boolean" },
    "hasRecentGastrointestinalSurgery": { "type": "boolean" },
    "isPregnant": { "type": "boolean" },
    "hasRecentFloraRegulatorUse": { "type": "boolean" },
    "hasRecentSpecifiedMedicalTreatment": { "type": "boolean" },
    "hasInfectiousDisease": { "type": "boolean" },
    "isCommercialDriverOrAtDrivingRisk": { "type": "boolean" },
    "researcherDeemsUnsuitable": { "type": "boolean" },
    "mocaTotalScore": { "type": "number" },
    "mmseTestCode": { "type": "string", "enum": ["MMS1-Total Score"] },
    "mmseTotalScore": { "type": "number" },
    "randomisedArm": { "type": "string", "enum": ["cpap-bsc", "bsc-only"] },
    "cpapUsageHours": { "type": "number", "minimum": 0 },
    "cpapMeanPressure": { "type": "number", "minimum": 0 },
    "cpapMeanLeak": { "type": "number", "minimum": 0 },
    "cpapResidualAhi": { "type": "number", "minimum": 0 }
  },
  "required": ["studySubjectCode", "visitDate", "visitType"],
  "x-airwayai": {
    "contractVersion": "1.1.0",
    "formId": "screening-baseline-cpap-compliance",
    "schemaVersion": "0.1.0",
    "status": "demo",
    "defaultLocale": "zh-TW",
    "locales": ["zh-TW"],
    "title": { "zh-TW": "OSA 篩選、基線與 CPAP 依從性" },
    "description": { "zh-TW": "依 BMJ Open 2017 OSA CPAP 研究計畫書建立之示範 eCRF。" },
    "disclaimer": { "zh-TW": "僅供 Demo 使用；非正式臨床資料庫、非臨床正確性或法規送件驗證。" },
    "fields": {
      "/studySubjectCode": { "label": { "zh-TW": "受試者研究代碼" }, "widget": "text", "coding": { "status": "not-applicable", "rationale": { "zh-TW": "非直接識別的技術性串聯鍵。" } } },
      "/visitDate": { "label": { "zh-TW": "訪視日期" }, "widget": "date", "coding": { "status": "not-applicable", "rationale": { "zh-TW": "本 CRF 未定義 SDTM 訪視資料集輸出。" } } },
      "/visitType": { "label": { "zh-TW": "訪視類型" }, "widget": "select", "options": [{ "value": "screening", "label": { "zh-TW": "篩選" } }, { "value": "baseline", "label": { "zh-TW": "基線" } }, { "value": "month-3", "label": { "zh-TW": "第 3 個月" } }, { "value": "month-6", "label": { "zh-TW": "第 6 個月" } }, { "value": "month-12", "label": { "zh-TW": "第 12 個月" } }], "coding": { "status": "not-applicable", "rationale": { "zh-TW": "訪視標籤採 protocol 時點；未設定受控術語。" } } },
      "/informedConsentObtained": { "label": { "zh-TW": "已取得書面知情同意" }, "widget": "boolean", "requiredWhen": { "op": "eq", "path": "/visitType", "value": "screening" }, "coding": { "status": "not-applicable", "rationale": { "zh-TW": "研究特定篩選判定。" } } },
      "/ageYears": { "label": { "zh-TW": "年齡" }, "widget": "integer", "unit": { "code": "a", "display": { "zh-TW": "歲" } }, "requiredWhen": { "op": "eq", "path": "/visitType", "value": "screening" }, "coding": { "status": "matched", "standard": "CDISC", "model": "SDTM", "implementationGuide": "SDTMIG v3.4", "domain": "DM", "variable": "AGE", "version": "3.4", "source": "https://www.cdisc.org/standards/foundational/sdtmig/sdtmig-v3-4" } },
      "/sex": { "label": { "zh-TW": "性別" }, "widget": "radio", "requiredWhen": { "op": "eq", "path": "/visitType", "value": "screening" }, "options": [{ "value": "F", "label": { "zh-TW": "女" }, "coding": { "system": "https://ncit.nci.nih.gov", "code": "C16576", "submissionValue": "F", "display": { "zh-TW": "Female" }, "version": "2026-03-27" } }, { "value": "M", "label": { "zh-TW": "男" }, "coding": { "system": "https://ncit.nci.nih.gov", "code": "C20197", "submissionValue": "M", "display": { "zh-TW": "Male" }, "version": "2026-03-27" } }, { "value": "U", "label": { "zh-TW": "未知" }, "coding": { "system": "https://ncit.nci.nih.gov", "code": "C17998", "submissionValue": "U", "display": { "zh-TW": "Unknown" }, "version": "2026-03-27" } }, { "value": "OTHER", "label": { "zh-TW": "其他" }, "coding": { "system": "https://ncit.nci.nih.gov", "code": "C17649", "submissionValue": "OTHER", "display": { "zh-TW": "Other" }, "version": "2026-03-27" } }], "coding": { "status": "not-applicable", "rationale": { "zh-TW": "使用者指定 Other，與非可擴充 CDISC SEX codelist 不相容；保留為研究特定收集。" } } },
      "/educationYears": { "label": { "zh-TW": "受教育年數" }, "widget": "number", "requiredWhen": { "op": "eq", "path": "/visitType", "value": "baseline" }, "unit": { "code": "a", "display": { "zh-TW": "年" } }, "coding": { "status": "not-applicable", "rationale": { "zh-TW": "研究特定基線資料。" } } },
      "/medicalHistory": { "label": { "zh-TW": "病史" }, "widget": "textarea", "visibleWhen": { "op": "eq", "path": "/visitType", "value": "baseline" }, "coding": { "status": "not-applicable", "rationale": { "zh-TW": "使用者核准自由文字，沒有可安全的 MH 結構映射。" } } },
      "/medicationUse": { "label": { "zh-TW": "用藥情形" }, "widget": "textarea", "visibleWhen": { "op": "eq", "path": "/visitType", "value": "baseline" }, "coding": { "status": "not-applicable", "rationale": { "zh-TW": "使用者核准自由文字，沒有可安全的 CM 結構映射。" } } },
      "/occupation": { "label": { "zh-TW": "職業" }, "widget": "text", "visibleWhen": { "op": "eq", "path": "/visitType", "value": "baseline" }, "coding": { "status": "not-applicable", "rationale": { "zh-TW": "使用者核准自由文字。" } } },
      "/psgAhi": { "label": { "zh-TW": "PSG AHI" }, "widget": "number", "unit": { "code": "{events}/h", "display": { "zh-TW": "次／小時" } }, "requiredWhen": { "op": "eq", "path": "/visitType", "value": "screening" }, "coding": { "status": "not-applicable", "rationale": { "zh-TW": "無可安全採用的單一 CDISC AHI 變數。" } } },
      "/cpapToleratedOneNight": { "label": { "zh-TW": "CPAP 單晚耐受（至少 4 小時）" }, "widget": "boolean", "requiredWhen": { "op": "eq", "path": "/visitType", "value": "screening" }, "coding": { "status": "not-applicable", "rationale": { "zh-TW": "研究特定納入判定。" } } },
      "/otherTrialWithin3Months": { "label": { "zh-TW": "過去 3 個月參與其他臨床試驗" }, "widget": "boolean", "requiredWhen": { "op": "eq", "path": "/visitType", "value": "screening" }, "coding": { "status": "not-applicable", "rationale": { "zh-TW": "研究特定納入判定。" } } },
      "/ableTestsAndFollowUp": { "label": { "zh-TW": "能完成檢測與追蹤" }, "widget": "boolean", "requiredWhen": { "op": "eq", "path": "/visitType", "value": "screening" }, "coding": { "status": "not-applicable", "rationale": { "zh-TW": "研究特定納入判定。" } } },
      "/hasSevereSystemicDisease": { "label": { "zh-TW": "排除：嚴重系統性疾病" }, "widget": "boolean", "requiredWhen": { "op": "eq", "path": "/visitType", "value": "screening" }, "coding": { "status": "not-applicable", "rationale": { "zh-TW": "研究特定排除判定。" } } },
      "/hasPsychiatricCondition": { "label": { "zh-TW": "排除：精神疾病" }, "widget": "boolean", "requiredWhen": { "op": "eq", "path": "/visitType", "value": "screening" }, "coding": { "status": "not-applicable", "rationale": { "zh-TW": "研究特定排除判定。" } } },
      "/hasNeurologicalDisease": { "label": { "zh-TW": "排除：神經系統疾病" }, "widget": "boolean", "requiredWhen": { "op": "eq", "path": "/visitType", "value": "screening" }, "coding": { "status": "not-applicable", "rationale": { "zh-TW": "研究特定排除判定。" } } },
      "/hasOtherSleepDisorder": { "label": { "zh-TW": "排除：其他睡眠障礙" }, "widget": "boolean", "requiredWhen": { "op": "eq", "path": "/visitType", "value": "screening" }, "coding": { "status": "not-applicable", "rationale": { "zh-TW": "研究特定排除判定。" } } },
      "/hasAlcoholDrugOrSedativeIssue": { "label": { "zh-TW": "排除：酒精／藥物成癮或精神藥物、鎮靜劑、麻醉藥使用" }, "widget": "boolean", "requiredWhen": { "op": "eq", "path": "/visitType", "value": "screening" }, "coding": { "status": "not-applicable", "rationale": { "zh-TW": "研究特定排除判定。" } } },
      "/hasPriorOsaTherapy": { "label": { "zh-TW": "排除：既往 OSA 治療" }, "widget": "boolean", "requiredWhen": { "op": "eq", "path": "/visitType", "value": "screening" }, "coding": { "status": "not-applicable", "rationale": { "zh-TW": "研究特定排除判定。" } } },
      "/hasMmseBelow24": { "label": { "zh-TW": "排除：MMSE 分數低於 24" }, "widget": "boolean", "requiredWhen": { "op": "eq", "path": "/visitType", "value": "screening" }, "coding": { "status": "not-applicable", "rationale": { "zh-TW": "研究特定排除判定。" } } },
      "/isLeftHanded": { "label": { "zh-TW": "排除：左撇子" }, "widget": "boolean", "requiredWhen": { "op": "eq", "path": "/visitType", "value": "screening" }, "coding": { "status": "not-applicable", "rationale": { "zh-TW": "研究特定排除判定。" } } },
      "/hasMriContraindication": { "label": { "zh-TW": "排除：MRI 禁忌症" }, "widget": "boolean", "requiredWhen": { "op": "eq", "path": "/visitType", "value": "screening" }, "coding": { "status": "not-applicable", "rationale": { "zh-TW": "研究特定排除判定。" } } },
      "/hasRecentGastrointestinalSurgery": { "label": { "zh-TW": "排除：近一年腸胃手術（闌尾炎、疝氣除外）" }, "widget": "boolean", "requiredWhen": { "op": "eq", "path": "/visitType", "value": "screening" }, "coding": { "status": "not-applicable", "rationale": { "zh-TW": "研究特定排除判定。" } } },
      "/isPregnant": { "label": { "zh-TW": "排除：懷孕" }, "widget": "boolean", "requiredWhen": { "op": "eq", "path": "/visitType", "value": "screening" }, "coding": { "status": "not-applicable", "rationale": { "zh-TW": "研究特定排除判定。" } } },
      "/hasRecentFloraRegulatorUse": { "label": { "zh-TW": "排除：近 8 週使用腸道菌叢調節劑" }, "widget": "boolean", "requiredWhen": { "op": "eq", "path": "/visitType", "value": "screening" }, "coding": { "status": "not-applicable", "rationale": { "zh-TW": "研究特定排除判定。" } } },
      "/hasRecentSpecifiedMedicalTreatment": { "label": { "zh-TW": "排除：近 3 個月指定感染／腸胃疾病治療" }, "widget": "boolean", "requiredWhen": { "op": "eq", "path": "/visitType", "value": "screening" }, "coding": { "status": "not-applicable", "rationale": { "zh-TW": "研究特定排除判定。" } } },
      "/hasInfectiousDisease": { "label": { "zh-TW": "排除：感染性疾病（如結核病、AIDS）" }, "widget": "boolean", "requiredWhen": { "op": "eq", "path": "/visitType", "value": "screening" }, "coding": { "status": "not-applicable", "rationale": { "zh-TW": "研究特定排除判定。" } } },
      "/isCommercialDriverOrAtDrivingRisk": { "label": { "zh-TW": "排除：商業駕駛或具駕駛事故風險" }, "widget": "boolean", "requiredWhen": { "op": "eq", "path": "/visitType", "value": "screening" }, "coding": { "status": "not-applicable", "rationale": { "zh-TW": "研究特定排除判定。" } } },
      "/researcherDeemsUnsuitable": { "label": { "zh-TW": "排除：研究者判定不適合" }, "widget": "boolean", "requiredWhen": { "op": "eq", "path": "/visitType", "value": "screening" }, "coding": { "status": "not-applicable", "rationale": { "zh-TW": "研究特定排除判定。" } } },
      "/mocaTotalScore": { "label": { "zh-TW": "MoCA 總分" }, "widget": "number", "requiredWhen": { "op": "eq", "path": "/visitType", "value": "baseline" }, "coding": { "status": "not-applicable", "rationale": { "zh-TW": "僅收總分；無可安全確認的 CDISC MoCA 總分術語。" } } },
      "/mmseTestCode": { "label": { "zh-TW": "MMSE 測試代碼" }, "widget": "select", "requiredWhen": { "op": "eq", "path": "/visitType", "value": "baseline" }, "options": [{ "value": "MMS1-Total Score", "label": { "zh-TW": "MMSE 總分" }, "coding": { "system": "https://ncit.nci.nih.gov", "code": "C100586", "submissionValue": "MMS1-Total Score", "display": { "zh-TW": "Mini-Mental State Examination - Total score" }, "version": "2026-03-27" } }], "coding": { "status": "matched", "standard": "CDISC", "model": "SDTM", "implementationGuide": "SDTMIG v3.4", "domain": "QS", "variable": "QSTESTCD", "version": "2026-03-27", "source": "https://evs.nci.nih.gov/ftp1/CDISC/SDTM/SDTM%20Terminology.pdf", "codelist": { "name": "Mini-Mental State Examination Functional Test Name", "submissionValue": "MMS1TN", "ncitCode": "C100141", "extensible": false } } },
      "/mmseTotalScore": { "label": { "zh-TW": "MMSE 總分" }, "widget": "number", "requiredWhen": { "op": "eq", "path": "/visitType", "value": "baseline" }, "coding": { "status": "matched", "standard": "CDISC", "model": "SDTM", "implementationGuide": "SDTMIG v3.4", "domain": "QS", "variable": "QSORRES", "version": "3.4", "source": "https://www.cdisc.org/standards/foundational/sdtmig/sdtmig-v3-4" } },
      "/randomisedArm": { "label": { "zh-TW": "隨機分派組別" }, "widget": "radio", "requiredWhen": { "op": "eq", "path": "/visitType", "value": "baseline" }, "options": [{ "value": "cpap-bsc", "label": { "zh-TW": "CPAP + BSC" } }, { "value": "bsc-only", "label": { "zh-TW": "僅 BSC" } }], "coding": { "status": "not-applicable", "rationale": { "zh-TW": "本 eCRF 未設定試驗臂資料集輸出。" } } },
      "/cpapUsageHours": { "label": { "zh-TW": "CPAP 使用時數彙總" }, "widget": "number", "unit": { "code": "h", "display": { "zh-TW": "小時" } }, "visibleWhen": { "all": [{ "op": "eq", "path": "/randomisedArm", "value": "cpap-bsc" }, { "op": "in", "path": "/visitType", "value": ["month-3", "month-6", "month-12"] }] }, "requiredWhen": { "all": [{ "op": "eq", "path": "/randomisedArm", "value": "cpap-bsc" }, { "op": "in", "path": "/visitType", "value": ["month-3", "month-6", "month-12"] }] }, "coding": { "status": "not-applicable", "rationale": { "zh-TW": "使用者定義的裝置彙總資料。" } } },
      "/cpapMeanPressure": { "label": { "zh-TW": "CPAP 平均壓力" }, "widget": "number", "unit": { "code": "cm[H2O]", "display": { "zh-TW": "cmH₂O" } }, "visibleWhen": { "all": [{ "op": "eq", "path": "/randomisedArm", "value": "cpap-bsc" }, { "op": "in", "path": "/visitType", "value": ["month-3", "month-6", "month-12"] }] }, "requiredWhen": { "all": [{ "op": "eq", "path": "/randomisedArm", "value": "cpap-bsc" }, { "op": "in", "path": "/visitType", "value": ["month-3", "month-6", "month-12"] }] }, "coding": { "status": "not-applicable", "rationale": { "zh-TW": "使用者定義的裝置彙總資料。" } } },
      "/cpapMeanLeak": { "label": { "zh-TW": "CPAP 平均漏氣" }, "widget": "number", "unit": { "code": "L/min", "display": { "zh-TW": "L/min" } }, "visibleWhen": { "all": [{ "op": "eq", "path": "/randomisedArm", "value": "cpap-bsc" }, { "op": "in", "path": "/visitType", "value": ["month-3", "month-6", "month-12"] }] }, "requiredWhen": { "all": [{ "op": "eq", "path": "/randomisedArm", "value": "cpap-bsc" }, { "op": "in", "path": "/visitType", "value": ["month-3", "month-6", "month-12"] }] }, "coding": { "status": "not-applicable", "rationale": { "zh-TW": "使用者定義的裝置彙總資料。" } } },
      "/cpapResidualAhi": { "label": { "zh-TW": "CPAP 殘餘 AHI" }, "widget": "number", "unit": { "code": "{events}/h", "display": { "zh-TW": "次／小時" } }, "visibleWhen": { "all": [{ "op": "eq", "path": "/randomisedArm", "value": "cpap-bsc" }, { "op": "in", "path": "/visitType", "value": ["month-3", "month-6", "month-12"] }] }, "requiredWhen": { "all": [{ "op": "eq", "path": "/randomisedArm", "value": "cpap-bsc" }, { "op": "in", "path": "/visitType", "value": ["month-3", "month-6", "month-12"] }] }, "coding": { "status": "not-applicable", "rationale": { "zh-TW": "使用者定義的裝置彙總資料。" } } }
    },
    "layout": [
      { "type": "section", "id": "visit", "title": { "zh-TW": "訪視" }, "items": [{ "type": "group", "id": "visit-core", "columns": 3, "items": [{ "type": "field", "path": "/studySubjectCode" }, { "type": "field", "path": "/visitDate" }, { "type": "field", "path": "/visitType" }] }] },
      { "type": "section", "id": "screening", "title": { "zh-TW": "篩選與資格" }, "items": [{ "type": "field", "path": "/informedConsentObtained" }, { "type": "group", "id": "screening-core", "columns": 2, "items": [{ "type": "field", "path": "/ageYears" }, { "type": "field", "path": "/sex" }, { "type": "field", "path": "/psgAhi" }, { "type": "field", "path": "/cpapToleratedOneNight" }, { "type": "field", "path": "/otherTrialWithin3Months" }, { "type": "field", "path": "/ableTestsAndFollowUp" }] }] },
      { "type": "section", "id": "exclusions", "title": { "zh-TW": "排除條件（有＝不符合資格）" }, "items": [{ "type": "group", "id": "exclusion-checklist", "columns": 2, "items": [{ "type": "field", "path": "/hasSevereSystemicDisease" }, { "type": "field", "path": "/hasPsychiatricCondition" }, { "type": "field", "path": "/hasNeurologicalDisease" }, { "type": "field", "path": "/hasOtherSleepDisorder" }, { "type": "field", "path": "/hasAlcoholDrugOrSedativeIssue" }, { "type": "field", "path": "/hasPriorOsaTherapy" }, { "type": "field", "path": "/hasMmseBelow24" }, { "type": "field", "path": "/isLeftHanded" }, { "type": "field", "path": "/hasMriContraindication" }, { "type": "field", "path": "/hasRecentGastrointestinalSurgery" }, { "type": "field", "path": "/isPregnant" }, { "type": "field", "path": "/hasRecentFloraRegulatorUse" }, { "type": "field", "path": "/hasRecentSpecifiedMedicalTreatment" }, { "type": "field", "path": "/hasInfectiousDisease" }, { "type": "field", "path": "/isCommercialDriverOrAtDrivingRisk" }, { "type": "field", "path": "/researcherDeemsUnsuitable" }] }] },
      { "type": "section", "id": "baseline", "title": { "zh-TW": "基線特徵與認知評估" }, "items": [{ "type": "group", "id": "baseline-scores", "columns": 2, "items": [{ "type": "field", "path": "/educationYears" }, { "type": "field", "path": "/randomisedArm" }, { "type": "field", "path": "/mocaTotalScore" }, { "type": "field", "path": "/mmseTestCode" }, { "type": "field", "path": "/mmseTotalScore" }] }, { "type": "field", "path": "/medicalHistory" }, { "type": "field", "path": "/medicationUse" }, { "type": "field", "path": "/occupation" }] },
      { "type": "section", "id": "cpap", "title": { "zh-TW": "CPAP 訪視彙總" }, "items": [{ "type": "group", "id": "cpap-summary", "columns": 2, "items": [{ "type": "field", "path": "/cpapUsageHours" }, { "type": "field", "path": "/cpapMeanPressure" }, { "type": "field", "path": "/cpapMeanLeak" }, { "type": "field", "path": "/cpapResidualAhi" }] }] }
    ],
    "computed": {}
  }
}
