"Version","Class","Domain","Variable Order","CDASH Variable","CDASH Variable Label","DRAFT CDASH Definition","Domain Specific","Question Text","Prompt","Type","SDTM Target","Mapping Instructions","Controlled Terminology Codelist Code","Implementation Notes"
"CDASH Model v1.3","Interventions",,"1","--YN","Any [Intervention]","An indication whether or not data were collected for the intervention topic.",,"Has the subject had any [intervention topic(s)] (after/before) [study-specific time frame] (after/before [study-specific time frame] )?; [Was/Were] (there) any [intervention topic(s)] [taken/performed/used/collected] (after/before) [study-specific time frame]?","Any [Intervention Topic]","Char",,"Does not map to an SDTM variable. The SDTM annotated CRF indicates that this field is NOT SUBMITTED.","C66742","General prompt question to aid in monitoring and data cleaning. This provides verification that all other fields on the CRF were deliberately left blank. This is a field that can be used on any Interventions CRF to indicate whether or not there are data to record."
"CDASH Model v1.3","Interventions",,"2","--TRT","Name of Treatment","The topic for the intervention observation, usually the reported name of the treatment, drug, medicine, or therapy given during the dosing interval for the observation.",,"What [is/was] the (type of) [treatment/investigational product/intervention topic]?; [If Other is selected], [explain/specify/provide more details].","[Treatment/Investigational Product/Intervention Name]; [Specify Other/Explain/Specify Details] [Treatment/Investigational Product/Intervention Name]","Char","--TRT","Maps directly to the SDTM variable listed in the SDTM Target column.","","If --TRT is preprinted/ prespecified, the value should also be mapped into the --TRT variable (e.g., if Oral Steroid is preprinted on a CM CRF, ""Oral Steroid"" should be stored in CMTRT). The CDASH field --TRT can also be used to collect any free-text values linked to the sponsor standardized value collected in the CDASH field --DECOD. For example, the CDASH field --DECOD may have a value of ""OTHER"" and the associated free-text intervention topic is collected in the CDASH field --TRT. In this scenario, the Item prompt ""Specify Other"" may be used."
"CDASH Model v1.3","Interventions",,"3","--DECOD","Standardized Treatment Name","The dictionary or sponsor-defined standardized text description of the topic variable, --TRT, or the modified topic variable (-- MODIFY), if applicable.",,"What [is/ was] the [treatment/intervention topic]?","[Intervention Topic]","Char","--DECOD","Maps directly to the SDTM variable listed in the SDTM Target column.","","When populated by a coding dictionary (e.g., WHO Drug, MedDRA), Question Text and Prompt are not applicable. WHO Drug may be used for coding treatment names and MedDRA may be used for coding procedures. When these dictionaries are used, --DECOD is equivalent to those dictionaries' Preferred Term. The CDASH field --DECOD may be used to collect standardized prespecified values (CDISC Controlled Terminology or sponsor-defined) on a CRF. The CDASH field --TRT can be used to collect any free-text values linked to the sponsor standardized value. For example, the CDASH field --DECOD may have a value of ""OTHER"" and the associated free-text intervention topic is collected in CDASH field --TRT."
"CDASH Model v1.3","Interventions",,"4","--MOOD","Mood","The mode or condition of the record that specifies whether the intervention (activity) is intended to happen or has happened.",,"Does this record describe scheduled treatment or performed treatment?","[Scheduled/Performed]","Char","--MOOD","Maps directly to the SDTM variable listed in the SDTM Target column.","C125923","""SCHEDULED"" is used when collecting subject-level intended dose records. ""PERFORMED"" is used when collecting subject-level actual dose records. This would most commonly be a heading on the CRF and not a question to which the site would provide an answer. If collecting both scheduled and performed dosing in the same horizontal record, the sponsor may append ""_SCHEDULED"" to the variable name to capture the scheduled dose."
"CDASH Model v1.3","Interventions",,"5","--CAT","Category","A grouping of topic-variable values based on user-defined characteristics.",,"What [is/was] the category (of the [intervention])?","[Category/Category Value]; NULL","Char","--CAT","Maps directly to the SDTM variable listed in the SDTM Target column.","","Sponsor-defined controlled terminology. This would most commonly be a heading on the CRF or screen, not a question to which the site would provide an answer. If a question is asked, the response would typically come from a sponsor-defined codelist. If the form is laid out as a grid, then words such as ""Category"" can be included as the column header. See examples in the CDASHIG metadata table and in the SDTMIG."
"CDASH Model v1.3","Interventions",,"6","--SCAT","Subcategory","A subdivision of the --CAT values based on user-defined characteristics.",,"What [is/was] the subcategory (of the [intervention])?","[Subcategory/Subcategory Value]; NULL","Char","--SCAT","Maps directly to the SDTM variable listed in the SDTM Target column.","","Sponsor-defined controlled terminology. This would most commonly be a heading on the CRF or screen, not a question to which the site would provide an answer. --SCAT can only be used if there is a --CAT. If a question is asked, the response would typically come from a sponsor-defined codelist. If the form is laid out as a grid, then words such as ""Subcategory"" can be included as the column header. See examples in the CDASHIG metadata table and in the SDTMIG."
"CDASH Model v1.3","Interventions",,"7","--PRESP","Pre-Specified Intervention","An indication that a specific intervention or a group of interventions is prespecified on a CRF.",,,,"Char","--PRESP","Maps directly to the SDTM variable listed in the SDTM Target column.","C66742","For prespecified interventions, a hidden field on a CRF may be defaulted to Y, or added during SDTM dataset creation. If a study collects both prespecified and free-text interventions, the value of --PRESP should be ""Y"" for all prespecified interventions and null for interventions reported as free text."
"CDASH Model v1.3","Interventions",,"8","--OCCUR","Occurrence","An indication that the prespecified intervention happened or was administered when information about the occurrence of the specific intervention is solicited.",,"Was [--TRT/ intervention] [taken/performed/administered/consumed] (after/before [study-specific time frame])?;Has the subject [had/taken/performed/administered/consumed] the [--TRT/ intervention]?","[--TRT/ Intervention] [Had/Taken/Performed/Administered/Consumed]","Char","--OCCUR","Maps directly to the SDTM variable listed in the SDTM Target column.","C66742","Used for specific interventions that are collected as defined by the protocol. If the term is preprinted/prespecified, the value should also be mapped into the --TRT variable (e.g., if Oral Steroid is preprinted on a CM CRF, ""Oral Steroid"" should be stored in CMTRT). The CDASH field --OCCUR is not used for spontaneously free-text reported --TRT. Should not be used to indicate data were not collected. Used only when the value can be collected using values from the CDISC CT (NY) codelist. --OCCUR is a Yes/No variable and in the SDTM submission datasets, --OCCUR is populated only for the records where --PRESP is ""Y"" and is null when --PRESP is null."
"CDASH Model v1.3","Interventions",,"9","--PERF","[Observation] Performed","The variable used to indicate whether data are available, by having the site recording the value as ""Yes"" or ""No"".",,"(Were/Was) (the) [intervention topic] [answered/done/assessed/evaluated/available]?","([intervention topic]) [Answered/Done/Assessed/Evaluated/Available]","Char","--STAT","This field does not map directly to an SDTM variable. May be used to populate a value into the SDTM variable --STAT to indicate when a prespecified Intervention was not assessed. If the CDASH variable --PERF=""N"", the value of the STDM variable --STAT is ""NOT DONE"". If --PERF= ""Y"", --STAT is null.","C66742","Using --PERF, a negative response can be collected as ""N"" and mapped to the --STAT variable in SDTM as ""NOT DONE"". --PERF can be used instead of --STAT when a Y/N response list is needed for implementation. Examples: Were prior medications assessed? Were medications of interest assessed? \n"
"CDASH Model v1.3","Interventions",,"10","--STAT","Completion Status","The variable used to indicate that data are not available, by having the site recording the value as ""Not Done"".",,"Was the [intervention topic] not [answered/done/assessed/evaluated/available]?; Indicate if ([intervention topic] was) not [answered/done/assessed/evaluated/available].","Not [Answered/Done/Assessed/Evaluated/Available]","Char","--STAT","Maps directly to the SDTM variable listed in the SDTM Target column. If collected, the Origin (column in the Define-XML) = ""CRF""; if populated from other sources such as a free text or sponsor-defined listing for --REASND, the Origin =""DERIVED"".","C66789","The value of ""Not Done"" indicates either that data are not available or the question was not asked. Do not use this CDASH field when collecting information on whether or not a prespecified intervention was performed; this should be recorded using the CDASH field --OCCUR."
"CDASH Model v1.3","Interventions",,"11","--REASND","Reason Not Done","An explanation of why data are not available.",,"What [is/was] the reason that the [Interventions topic/data/information/sponsor-defined phrase] was not [collected/answered/done/assessed/evaluated/available]?","Reason Not [Collected/Answered/Done/Assessed/Evaluated/Available]","Char","--REASND","Maps directly to the SDTM variable listed in the SDTM Target column.","","Sponsor-defined controlled terminology may be used. The reason the data are not available may be chosen from a sponsor-defined codelist (e.g., broken equipment, subject refused) or entered as free text. When --REASND is used, --STAT should also be populated in the SDTM dataset."
"CDASH Model v1.3","Interventions",,"12","--INDC","Indication","The condition, disease, symptom, or disorder that the intervention was used to address or investigate (e.g., why the therapy was taken or administered, why the procedure was performed).",,"For what indication was the [--TRT] [taken/performed/administered/consumed]?","Indication","Char","--INDC","Maps directly to the SDTM variable listed in the SDTM Target column.","","This additional information is collected on the CRF when the sponsor wants to capture the indication(s)/medical problem(s) why a subject took/had an intervention. This information can then be used as deemed appropriate for coding, analysis, or for reconciling the interventions as part of the data clean-up and monitoring process."
"CDASH Model v1.3","Interventions",,"13","--DOSE","Dose","The amount of substance (e.g., --TRT) given at one time, represented as a numeric value.",,"What [is/ was] the (individual) (intended) [dose/amount] (of [--TRT] [taken/performed/administered/consumed/per administration])?","(Intended) [Dose/Amount] (per Administration)","Num","--DOSE","Maps directly to the SDTM variable listed in the SDTM Target column.","","Used when the dose/amount taken/administered/consumed has only numeric entries. If non-numeric entries are possible, use the CDASH field --DSTXT."
"CDASH Model v1.3","Interventions",,"14","--DSTXT","Dose Description","The amount of substance (e.g., --TRT) given at one time, represented in text format.",,"What [is/was] the (individual) (intended) [dose/amount] (of [--TRT] [taken/performed/administered/consumed/per administration])?","(Intended) [Dose/Amount] (per Administration)","Char","--DOSE; --DOSTXT","Does not directly map to SDTM. Maps to either --DOSE or DOSTXT.","","Defining this data collection field as a dose text field allows for flexibility in capturing dose entries as numbers, text, or ranges."
"CDASH Model v1.3","Interventions",,"15","--DOSU","Dose Units","The unit for --DOSE, --DOSTOT, or --DOSTXT.",,"What [is/was] the unit (for the dose/amount of [--TRT])?","([Dose/Amount]) Unit","Char","--DOSU","Maps directly to the SDTM variable listed in the SDTM Target column.","C71620","When possible, this is preprinted on the CRF with the associated treatment. Dose unit may be derived via other methods (e.g., from protocol, from data). When collected, the unit is preprinted on the CRF or a field is provided on the CRF to capture it."
"CDASH Model v1.3","Interventions",,"16","--DOSFRM","Dose Form","The form in which --TRT is physically presented.",,"What [is/was] the dose form (of the [--TRT])?","Dose Form","Char","--DOSFRM","Maps directly to the SDTM variable listed in the SDTM Target column.","C66726",
"CDASH Model v1.3","Interventions",,"17","--DOSFRQ","Dosing Frequency per Interval","The number of doses given/administered/taken during a specific interval.",,"What [is/was] the frequency (of the [--TRT])?","Frequency","Char","--DOSFRQ","Maps directly to the SDTM variable listed in the SDTM Target column.","C71113","When possible, the options for dose/amount frequency are preprinted on the CRF. When collected, the recommendation is to collect dosing information in separate fields (e.g., --DOSE ,--DOSEU,--DOSFRQ) for specific and consistent data collection and to enable programmatically utilizing these data."
"CDASH Model v1.3","Interventions",,"18","--DOSTOT","Total Daily Dose","The total amount of --TRT taken over a day, using the units in --DOSU.",,"What [is/was] the total [dose/amount] (of the [--TRT/Intervention] [taken/performed/administered/consumed])?","Total Daily [Dose/Amount]","Num","--DOSTOT","Maps directly to the SDTM variable listed in the SDTM Target column.","","Used when dosing is collected as total daily dose"
"CDASH Model v1.3","Interventions",,"19","--DOSRGM","Intended Dose Regimen","The text description of the intended dosing schedule for the administration of the intervention.",,"What [is/was] the intended dose regimen (of the [--TRT])?","Intended Dose Regimen","Char","--DOSRGM","Maps directly to the SDTM variable listed in the SDTM Target column.","","When possible, the options for intended dose regimen are preprinted on the CRF. The sponsor may wish to create a codelist to collect this data consistently. Example: TWO WEEKS ON, TWO WEEKS OFF."
"CDASH Model v1.3","Interventions",,"20","--ROUTE","Route of Administration","The route of administration of the intervention.",,"What [is/was] the route of administration (of the [--TRT])?","Route","Char","--ROUTE","Maps directly to the SDTM variable listed in the SDTM Target column.","C66729",
"CDASH Model v1.3","Interventions",,"21","--LOT","Lot Number","Lot number of the intervention product.",,"What [is/was] the lot number (of the [--TRT])?","Lot Number","Char","--LOT","Maps directly to the SDTM variable listed in the SDTM Target column.","","The lot number identifies the manufacturing batch of the intervention product. In open-label studies, the reference number on the product container may represent an actual lot number and should be submitted using --LOT. This variable may be populated during the process of creating the SDTM submission datasets. Do not collect other identification variables in this field."
"CDASH Model v1.3","Interventions",,"22","--LOC","Location of Dose Administration","The anatomical location of an intervention (e.g., injection site).",,"What [is/was] the anatomical location (of the administration/where the [intervention] was taken/performed)?","Anatomical Location","Char","--LOC","Maps directly to the SDTM variable listed in the SDTM Target column.","C74456","This may be preprinted or collected. --LOC is used only to specify the anatomical location. --LAT, --DIR, --PORTOT are used to further describe the anatomical location."
"CDASH Model v1.3","Interventions",,"23","--LAT","Laterality","Qualifier for anatomical location further detailing side of intervention administration.",,"What [is/was] the side (of the anatomical location of the administration)?","Side","Char","--LAT","Maps directly to the SDTM variable listed in the SDTM Target column.","C99073","Further detailing the laterality of the location where the --TRT was administered/taken. This may be preprinted or collected. Sponsors may collect the data using a subset list of CT on the CRF."
"CDASH Model v1.3","Interventions",,"24","--DIR","Directionality","Qualifier further detailing the position of the anatomical location relative to the center of the body, organ, or specimen.",,"What [is/was] the directionality (of the anatomical location of the administration)?","Directionality","Char","--DIR","Maps directly to the SDTM variable listed in the SDTM Target column.","C99074","Further detailing the directionality of the location where the --TRT was administered/taken (e.g., ANTERIOR, LOWER, PROXIMAL). This may be preprinted or collected. Sponsors may collect the data using a subset list of CT on the CRF."
"CDASH Model v1.3","Interventions",,"25","--PORTOT","Portion or Totality","Qualifier for anatomical location further detailing the distribution (i.e., arrangement of, apportioning of).",,"What [is/was] the portion or totality (of the anatomical location of the administration)?","Portion or Totality","Char","--PORTOT","Maps directly to the SDTM variable listed in the SDTM Target column.","C99075","Further detailing the portion or totality of the location where the --TRT was administered/taken. This may be preprinted or collected."
"CDASH Model v1.3","Interventions",,"26","--FAST","Fasting Status","An indication that the subject has abstained from food/water for the specified amount of time.",,"[Is/was] the subject fasting (prior to study treatment [being taken/administered/given])?","Fasting","Char","--FAST","Maps directly to the SDTM variable listed in the SDTM Target column.","C66742",
"CDASH Model v1.3","Interventions",,"27","--PSTRG","Pharmaceutical Strength","The amount of an active ingredient expressed quantitatively per dosage unit, per unit of volume, or per unit of weight, according to the pharmaceutical dose form.",,"What [is/was] the pharmaceutical strength (of the [--TRT])?","Pharmaceutical Strength","Num","--PSTRG","Maps directly to the SDTM variable listed in the SDTM Target column.","",
"CDASH Model v1.3","Interventions",,"28","--PSTRGU","Pharmaceutical Strength Units","The unit for --PSTRG.",,"What [is/was] the unit (of the pharmaceutical strength (of the [--TRT]))?","Unit","Char","--PSTRGU","Maps directly to the SDTM variable listed in the SDTM Target column.","C71620","The unit is preprinted on the CRF or a field is provided on the CRF to capture it."
"CDASH Model v1.3","Interventions",,"29","--TRTV","Treatment Vehicle","The vehicle for administration of treatment (e.g., a liquid in which the treatment drug is dissolved).",,"What [is/was] the vehicle for administration of the [--TRT]?","Treatment Vehicle","Char","--TRTV","Maps directly to the SDTM variable listed in the SDTM Target column.","",
"CDASH Model v1.3","Interventions",,"30","--VAMT","Treatment Vehicle Amount","The amount of the prepared product (treatment + vehicle) administered or given.",,"What [is/was] the amount (of the prepared product (treatment + vehicle) [administered/taken])?","Treatment + Vehicle Amount","Char","--VAMT","Maps directly to the SDTM variable listed in the SDTM Target column.","","Note: Should not be diluent amount alone"
"CDASH Model v1.3","Interventions",,"31","--VAMTU","Treatment Vehicle Amount Units","The unit of measurement for the prepared product (treatment + vehicle).",,"What [is/was] the unit?","Unit","Char","--VAMTU","Maps directly to the SDTM variable listed in the SDTM Target column.","C71620","The unit is preprinted on the CRF or a field is provided on the CRF to capture it."
"CDASH Model v1.3","Interventions",,"32","--FLRT","[ --TRT] Infusion Rate","The flow rate for the total amount of drug + vehicle administered to the subject.",,"What [is/was] the ([--TRT] infusion) rate?","([--TRT] Infusion) Rate","Char","QVAL","This information could be submitted in a SUPP-- dataset as the value of SUPP--.QVAL where SUPP--.QNAM = ""-- FLRT"" and SUPP--.QLABEL = ""Infusion Rate"". Refer to the current SDTM and SDTMIG for instructions on placement of non-standard variables (NSVs) in SDTM domains.","","Infusion rate can be used to derive dose."
"CDASH Model v1.3","Interventions",,"33","--FLRTU","[--TRT] Infusion Rate Unit","The unit of measure for the flow rate for the total amount of drug + vehicle administered to the subject.",,"What [is/was] the ([--TRT] infusion rate) unit?","([ --TRT ] Infusion Rate) Unit","Char","QVAL","This information could be submitted in a SUPP-- dataset as the value of SUPP--.QVAL where SUPP--.QNAM= ""--FLRTU"" and SUPP.QLABEL= ""Infusion Rate Unit"". Refer to the current SDTM and SDTMIG for instructions on placement of NSVs in SDTM domains.","C71620","The infusion rate unit (e.g., mL/min) is preprinted on the CRF or a field is provided on the CRF to capture it."
"CDASH Model v1.3","Interventions",,"34","--ADJ","Reason for Dose Adjustment","Description of or explanation for why a dose/amount of the intervention is adjusted.",,"What [is/was] the reason the (study treatment/procedure) [dose/amount] was adjusted?","Reason Adjusted","Char","--ADJ","Maps directly to the SDTM variable listed in the SDTM Target column.","","The implementer may choose to create sponsor-defined controlled terminology (e.g., Adverse Event, Insufficient Response, Nonmedical Reason)."
"CDASH Model v1.3","Interventions",,"35","--DOSADJ","Dose Adjusted","An indication whether or not the dose was adjusted.",,"[Is/was] the (study treatment/procedure) [dose/amount] adjusted?","(Dose) Adjusted","Char",,"Does not map to an SDTM variable. The SDTM annotated CRF indicates that this field is NOT SUBMITTED. If the Reason for Dose Adjustment is not collected, the sponsor might chose to submit this as a supplemental qualifier.","C66742","Typically, the intent/purpose of collecting this field is to help with data cleaning and monitoring. It provides verification that the associated field on the CRF was deliberately left blank. However, the sponsor may collect whether the intervention was adjusted, without collecting the reason for the change."
"CDASH Model v1.3","Interventions",,"36","--ITRPYN","Intervention Interrupted","An indication whether or not the intervention was interrupted.",,"[Is/was] the [--TRT/Intervention] interrupted?","[--TRT/Intervention] Interrupted","Char",,"Does not map to an SDTM variable. The SDTM annotated CRF indicates that this field is NOT SUBMITTED.","C66742","The intent/purpose of collecting this field is to help with data cleaning and monitoring when the actual duration of the interruption is collected using the CDASH field --CINTD. In some situations, if the actual duration of the interruption is not collected, or not derived, this information could be submitted in a SUPP--.QVAL dataset where SUPP--.QNAM = ""--ITRPYN"" and SUPP--.QLABEL = ""Intervention Interrupted""."
"CDASH Model v1.3","Interventions",,"37","--REASOC","Reason for Occur Value","An explanation for why the scheduled intervention did or did not occur.",,"What [is/was] the reason the [intervention topic] was [(not) [performed/taken/done/administered]]? What [is/was] the reason for the [intervention topic] occur value?","Reason (Not) [Performed/Taken/Done/Administered/Occur Value]","Char","--REASOC","Maps directly to the SDTM variable listed in the SDTM Target column.","","The reason the intervention did or did not occur may be chosen from a sponsor-defined codelist (e.g., SUBJECT MISTAKE, SUBJECT REFUSED) or entered as free text. When --REASOC is used, --OCCUR must also be populated."
"CDASH Model v1.3","Interventions",,"38","--ITRPRS","Reason Intervention Interrupted","An indication why the intervention was interrupted.",,"Why was the [--TRT/Intervention] interrupted?","Reason [--TRT/Intervention] Interrupted","Char","QVAL","This information could be submitted in a SUPP-- dataset as the value of SUPP--.QVAL where SUPP--.QNAM = ""--ITRPRS"" and SUPP--.QLABEL =""Reason Intervention Interrupted"". Refer to the current SDTM and SDTMIG for instructions on placement of NSVs in SDTM domains.","","This CDASH field is use to collected the reason an intervention was interrupted. Sponsors may define their own controlled terminology."
"CDASH Model v1.3","Interventions",,"39","--CINTD","Interruption Duration","The collected duration of the intervention interruption.",,"What was the duration of the [--TRT/Intervention] interruption?; How long was the [--TRT/Intervention] interruption?","(Interruption) Duration","Char","QVAL","This does not map directly to an SDTM variable. This information could be submitted in a SUPP-- dataset as the value of SUPP--.QVAL where SUPP--.QNAM = ""--ITRPD"" and SUPP--.QLABEL= ""Interruption Duration"". Concatenate the collected intervention interruption duration and the duration unit components and create --ITRPD using ISO 8601 period format. Refer to the current SDTM and SDTMIG for instructions on placement of NSVs in SDTM domains.","","This CDASH field is use to collected the duration of an intervention interruption. In some situations, the duration of the interruption may not be collected but calculated from the intervention start and end times recorded elsewhere in the CRF."
"CDASH Model v1.3","Interventions",,"40","--CINTDU","Interruption Duration Unit","The unit for the collected duration of intervention interruption.",,"What [is/was] the (interruption duration) unit?","(Interruption Duration) Unit","Char","QVAL","This does not map directly to an SDTM variable. This information could be submitted in a SUPP-- dataset as the value of SUPP--.QVAL where SUPP--.QNAM = ""--ITRPD"" and SUPP--.QLABEL= ""Interruption Duration"". Concatenate the collected intervention interruption duration and the duration unit components and create --ITRPD using ISO 8601 Period format. Refer to the current SDTM and SDTMIG for instructions on placement of NSVs in SDTM domains.","C71620","The unit is preprinted on the CRF or a field is provided on the CRF to capture it."
"CDASH Model v1.3","Interventions",,"41","--TRTCMP","Completed Treatment","An indication of whether or not the subject completed the intended regimen.",,"Did the subject complete [treatment/ the full course/sponsor provided phrase] (of the [--TRT/Intervention])?","Completed [--TRT/Intervention]","Char","QVAL","This information could be submitted in a SUPP-- dataset as the value of SUPP--.QVAL where SUPP--.QNAM = ""--TRTCMP"" and SUPP--.QLABEL =""Completed Treatment"". Refer to the current SDTM and SDTMIG for instructions on placement of NSVs in SDTM domains.","C66742","This could be used when treatment is given as a fixed number of cycles and the sponsor needs a flag to indicate that the treatment has been completed as planned."
"CDASH Model v1.3","Interventions",,"42","--NCF","Never Current Former Usage","An indication of whether the substance was used and when it was used.",,"Has the subject ever [used/consumed] [--TRT/Intervention]?","Usage","Char","--ENRF; --ENRTPT; --OCCUR; --STRF; --STRTPT","This does not map directly to an SDTM variable. May be used to populate a value into the SDTM variable --OCCUR. If --NCF = ""Never"", the value of --OCCUR will be ""N"". If --NCF = ""Current"" or ""Former"", the value of --OCCUR will be ""Y"". May also be used to populate a value into an SDTM relative timing variable such as --STRTPT or --STRF. If the value of --NCF is ""Former"", the value of """"BEFORE"" may be used. If the value of --NCF is ""current"", the value of ""ONGOING"" may be used. When populating --STRTPT, if the value of --NCF is ""Former"", the value of ""BEFORE"" may be used. Note: --STRTPT must refer to a time point anchor described in --STTPT. This variable may also be used to populate the SDTM ending relative timing variables.","C78738","The preferred SDTM mapping is provided. This information is usually not submitted in a SUPP--.QVAL dataset."
"CDASH Model v1.3","Interventions",,"43","--ONGO","Ongoing Intervention","An indication whether the intervention is ongoing as of a given timepoint when no end date is provided.",,"[Is/Was] the [--TRT/Intervention] ongoing (as of [the study-specific timepoint or period])?","Ongoing (as of the [Study-Specific Timepoint or Period])","Char","--ENRF; --ENRTPT","This does not map directly to an SDTM variable. May be used to populate a value into an SDTM relative timing variable such as --ENRF or --ENRTPT. When populating --ENRF, or --ENRTPT, if the value of the CDASH field --ONGO is ""Y"" a value from the CDISC CT (STENRF) may be used. When --ONGO refers to the Study Reference Period (defined in DM.RFSTDTC to DM.RFENDTC), the SDTM variable --ENRF should be populated. When --ONGO is compared to another timepoint, the SDTM variables --ENRTPT and --ENTPT should be used. Note: --ENRTPT must refer to the time point anchor described in --ENTPT.","C66742","The CDASH field --ONGO allows specific question text/prompt about interventions ending after the study or after a given timepoint. Select the appropriate text when designing the CRF. This may also be included in the CRF title or instructions. Used in conjunction with either a reference timepoint (--ENTPT, --ENRTPT) or in conjunction with the Study Reference Period (described as RFSTDTC to RFENDTC). May also be used as a tick/checkbox. See CDASHIG Section 3.7 for more information."
"CDASH Model v1.3","Interventions",,"44","COVAL","Comment","A free-text comment.",,"[Protocol-specified Targeted Question]?","[Abbreviated version of the protocol-specified targeted question]","Char","COVAL","This does not map directly to an SDTM variable. For the SDTM dataset, the CDASH variable --COVAL maps to the SDTM variable COVAL (COVAL2, COVAL3) in the CO domain. Associate the free-text comment in the CO domain with the original record using RDOMAIN, IDVAR, IDVARVAL, COREF.","","If an additional free-text field is needed to provide a comment about a particular record, use the COVAL(n) field to collect the free text, and associate the free-text comment with the original record using SDTM variables RDOMAIN, IDVAR, IDVARVAL, COREF. See the SDTMIG for more information."
"CDASH Model v1.3","Interventions",,"45","--MODIFY","Modified Treatment Name","If the value for --TRT is modified for coding purposes, then the modified text is placed here.",,,,"Char","--MODIFY","Maps directly to the SDTM variable listed in the SDTM Target column.","","This is not a data collection field that will appear on the CRF. Sponsors will populate this through the coding process. Rationale for adding coding variables to CDASH is to provide a more complete data management package."
"CDASH Model v1.3","Interventions",,"46","--CLAS","Class","The class for the intervention, often obtained from a coding dictionary.",,,,"Char","--CLAS","Maps directly to the SDTM variable listed in the SDTM Target column. The sponsor is expected to provide the dictionary name and version used to code interventions, using Define-XML external codelist attributes. Sponsors should include an Origin column in the define metadata document to indicate that the data was ""ASSIGNED"".","","This is not a data collection field that will appear on the CRF itself. Sponsors will populate this through the coding process (e.g., WHO Drug). This would generally be the class used for analysis."
"CDASH Model v1.3","Interventions",,"47","--CLASCD","Class Code","The assigned dictionary code for the class for the intervention.",,,,"Char","--CLASCD","Maps directly to the SDTM variable listed in the SDTM Target column. The sponsor is expected to provide the dictionary name and version used to code interventions,, using Define-XML external codelist attributes. Sponsors should include an Origin column in the define metadata document to indicate that the data was ""ASSIGNED"".","","This is not a data collection field that will appear on the CRF itself. Sponsors will populate this through the coding process (e.g., WHO Drug). This would generally be the class used for analysis."
"CDASH Model v1.3","Interventions",,"48","--CNTMOD","Contact Mode","The way in which the event, visit, or contact was conducted.",,"What was the contact mode?","Contact Mode","Char","--CNTMOD","Maps directly to the SDTM variable listed in the SDTM Target column.","",
"CDASH Model v1.3","Interventions",,"49","--EPCHGI","Epi/Pandemic Related Change Indicator","An indication whether the intervention was changed due to an epidemic or pandemic.",,"Was the [intervention/treatment] changed due to an epidemic or pandemic?","Epi/Pandemic Related Change Indicator","Char","--EPCHGI","Maps directly to the SDTM variable listed in the SDTM Target column.","C66742",
"CDASH Model v1.3","Interventions",,"50","--RSDISC","Reason for Treatment Discontinuation","The reason the intervention was discontinued.",,"What was the reason the [intervention/treatment] was discontinued?","Reason for [intervention/treatment] Discontinuation","Char","--RSDISC","Maps directly to the SDTM variable listed in the SDTM Target column.","",
"CDASH Model v1.3","Interventions",,"51","--ATC1","ATC Level 1 Description","The first level of hierarchy within the Anatomical Therapeutic Chemical (ATC) Classification System; indicates the anatomical main group.",,,,"Char","QVAL","This information could be submitted in a SUPP-- dataset as the value of SUPP--.QVAL where SUPP--.QNAM= ""--ATC1"" and SUPP--QLABEL= ""ATC Level 1 Description"". Refer to the current SDTM and SDTMIG for instructions on placement of NSVs in SDTM domains. Sponsors should include an Origin column in the SUPPQ dataset to indicate that the data was ""ASSIGNED"".","","This is not a data collection field that will appear on the CRF itself. Sponsors will populate this through the coding process (e.g., WHO Drug). Rationale for adding coding variables to CDASH is to provide a more complete data management package. This is an example of variables that could be used in the CM domain for coding. Other dictionaries can be used and the appropriate coding elements added, if appropriate, in the SUPP--.QVAL dataset."
"CDASH Model v1.3","Interventions",,"52","--ATC1CD","ATC Level 1 Code","The assigned dictionary code denoting the first level of hierarchy within the ATC Classification System; indicates the anatomical main group.",,,,"Num","QVAL","This information could be submitted in a SUPP--dataset as the value of SUPP--.QVAL where SUPP--.QNAM = ""--ATC1CD"" and SUPP--.QLABEL=""ATC Level 1 Code"". Refer to the current SDTM and SDTMIG for instructions on placement of NSVs in SDTM domains. Sponsors should include an Origin column in the SUPPQ dataset to indicate that the data was ""ASSIGNED"".","","This is not a data collection field that will appear on the CRF itself. Sponsors will populate this through the coding process (e.g., WHO Drug). Rationale for adding coding variables to CDASH is to provide a more complete data management package. This is an example of variables that could be used in the CM domain for coding. Other dictionaries can be used and the appropriate coding elements added, if appropriate, in the SUPP--.QVAL dataset."
"CDASH Model v1.3","Interventions",,"53","--ATC2","ATC Level 2 Description","The second level of hierarchy within the ATC Classification System; indicates the therapeutic main group.",,,,"Char","QVAL","This information could be submitted in a SUPP-- dataset as the value of SUPP--.QVAL where SUPP--.QNAM = --ATC2 and SUPP--QLABEL=""ATC Level 2 Description"". Refer to the current SDTM and SDTMIG for instructions on placement of NSVs in SDTM domains. Sponsors should include an Origin column in the SUPPQ dataset to indicate that the data was ""ASSIGNED"".","","This is not a data collection field that will appear on the CRF itself. Sponsors will populate this through the coding process (e.g., WHO Drug). Rationale for adding coding variables to CDASH is to provide a more complete data management package. This is an example of variables that could be used in the CM domain for coding. Other dictionaries can be used and the appropriate coding elements added, if appropriate, in the SUPP--.QVAL dataset."
"CDASH Model v1.3","Interventions",,"54","--ATC2CD","ATC Level 2 Code","The assigned dictionary code denoting the second level of hierarchy within the ATC Classification System; indicates the therapeutic main group.",,,,"Num","QVAL","This information could be submitted in a SUPP-- dataset as the value of SUPP--.QVAL where SUPP--.QNAM = --ATC2CD and SUPP--.QLABEL=""ATC Level 2 Code"". Refer to the current SDTM and SDTMIG for instructions on placement of NSVs in SDTM domains. Sponsors should include an Origin column in the SUPPQ dataset to indicate that the data was ""ASSIGNED"".","","This is not a data collection field that will appear on the CRF itself. Sponsors will populate this through the coding process (e.g., WHO Drug). Rationale for adding coding variables to CDASH is to provide a more complete data management package. This is an example of variables that could be used in the CM domain for coding. Other dictionaries can be used and the appropriate coding elements added, if appropriate, in the SUPP--.QVAL dataset."
"CDASH Model v1.3","Interventions",,"55","--ATC3","ATC Level 3 Description","The third level of hierarchy within the ATC Classification System; indicates the therapeutic/pharmacological subgroup.",,,,"Char","QVAL","This information could be submitted in a SUPP--dataset as the value of SUPP--.QVAL where SUPP--.QNAM = ""--ATC3"" and SUPP--QLABEL=""ATC Level 3 Description"". Refer to the current SDTM and SDTMIG for instructions on placement of NSVs in SDTM domains. Sponsors should include an Origin column in the SUPPQ dataset to indicate that the data was ""ASSIGNED"".","","This is not a data collection field that will appear on the CRF itself. Sponsors will populate this through the coding process (e.g., WHO Drug). Rationale for adding coding variables to CDASH is to provide a more complete data management package. This is an example of variables that could be used in the CM domain for coding. Other dictionaries can be used and the appropriate coding elements added, if appropriate, in the SUPP--.QVAL dataset."
"CDASH Model v1.3","Interventions",,"56","--ATC3CD","ATC Level 3 Code","The assigned dictionary code denoting the third level of hierarchy within the ATC Classification System; indicates the therapeutic/pharmacological subgroup.",,,,"Num","QVAL","This information could be submitted in a SUPP--dataset as the value of SUPP--.QVAL where SUPP--.QNAM = ""--ATC3CD"" and SUPP--.QLABEL=""ATC Level 3 Code"". Refer to the current SDTM and SDTMIG for instructions on placement of NSVs in SDTM domains. Sponsors should include an Origin column in the SUPPQ dataset to indicate that the data was ""ASSIGNED"".","","This is not a data collection field that will appear on the CRF itself. Sponsors will populate this through the coding process (e.g., WHO Drug). Rationale for adding coding variables to CDASH is to provide a more complete data management package. This is an example of variables that could be used in the CM domain for coding. Other dictionaries can be used and the appropriate coding elements added, if appropriate, in the SUPP--.QVAL dataset."
"CDASH Model v1.3","Interventions",,"57","--ATC4","ATC Level 4 Description","The fourth level of hierarchy within the ATC Classification System; indicates the chemical/therapeutic/pharmacological subgroup.",,,,"Char","QVAL","This information could be submitted in a SUPP--dataset as the value of SUPP--.QVAL where SUPP--.QNAM = ""--ATC4"" and SUPP--QLABEL=""ATC Level 4 Description"". Refer to the current SDTM and SDTMIG for instructions on placement of NSVs in SDTM domains. Sponsors should include an Origin column in the SUPPQ dataset to indicate that the data was ""ASSIGNED"".","","This is not a data collection field that will appear on the CRF itself. Sponsors will populate this through the coding process (e.g., WHO Drug). Rationale for adding coding variables to CDASH is to provide a more complete data management package. This is an example of variables that could be used in the CM domain for coding. Other dictionaries can be used and the appropriate coding elements added, if appropriate, in the SUPP--.QVAL dataset."
"CDASH Model v1.3","Interventions",,"58","--ATC4CD","ATC Level 4 Code","The assigned dictionary code denoting the fourth level of hierarchy within the ATC Classification System; indicates the chemical/therapeutic/pharmacological subgroup.",,,,"Num","QVAL","This information could be submitted in a SUPP--.QVAL dataset where SUPP--.QNAM = ""--ATC4CD"" and SUPP--.QLABEL=""ATC Level 4 Code"". Refer to the current SDTM and SDTMIG for instructions on placement of NSVs in SDTM domains. Sponsors should include an Origin column in the SUPPQ dataset to indicate that the data was ""ASSIGNED"".","","This is not a data collection field that will appear on the CRF itself. Sponsors will populate this through the coding process (e.g., WHO Drug). Rationale for adding coding variables to CDASH is to provide a more complete data management package. This is an example of variables that could be used in the CM domain for coding. Other dictionaries can be used and the appropriate coding elements added, if appropriate, in the SUPP--.QVAL dataset."
"CDASH Model v1.3","Interventions",,"59","--ATC5","ATC Level 5 Description","The fifth level of hierarchy within the ATC Classification System; indicates the chemical substance.",,,,"Char","QVAL","This information could be submitted in a SUPP--dataset as the value of SUPP--.QVAL where SUPP--.QNAM = ""--ATC5"" and SUPP--.QLABEL=""ATC Level 5 Description"". Refer to the current SDTM and SDTMIG for instructions on placement of NSVs in SDTM domains. Sponsors should include an Origin column in the SUPPQ dataset to indicate that the data was ""ASSIGNED"".","","This is not a data collection field that will appear on the CRF itself. Sponsors will populate this through the coding process (e.g., WHO Drug). Rationale for adding coding variables to CDASH is to provide a more complete data management package. This is an example of variables that could be used in the CM domain for coding. Other dictionaries can be used and the appropriate coding elements added, if appropriate, in the SUPP--.QVAL dataset."
"CDASH Model v1.3","Interventions",,"60","--ATC5CD","ATC Level 5 Code","The assigned dictionary code denoting the fifth level of hierarchy within the ATC Classification System; indicates the chemical substance.",,,,"Num","QVAL","This information could be submitted in a SUPP-- dataset as the value of SUPP--.QVAL where SUPP--.QNAM = ""--ATC5CD"" and SUPP--.QLABEL=""ATC Level 5 Code"". Refer to the current SDTM and SDTMIG for instructions on placement of NSVs in SDTM domains. Sponsors should include an Origin column in the SUPPQ dataset to indicate that the data was ""ASSIGNED"".","","This is not a data collection field that will appear on the CRF itself. Sponsors will populate this through the coding process (e.g., WHO Drug). Rationale for adding coding variables to CDASH is to provide a more complete data management package. This is an example of variables that could be used in the CM domain for coding. Other dictionaries can be used and the appropriate coding elements added, if appropriate, in the SUPP--.QVAL dataset."
"CDASH Model v1.3","Interventions",,"61","--INGRD","Active Ingredients","A description of the active ingredients used in the medication taken or administered.",,"What [are/were] the active ingredients?","Active Ingredients","Char","QVAL","This information could be submitted in a SUPP--.QVAL dataset where SUPP--.QNAM = ""--INGRID"" and SUPP--.QLABEL= ""Active Ingredients"". Refer to the current SDTM and SDTMIG for instructions on placement of NSVs in SDTM domains.","","This may be collected in addition to the medication/therapy name. Collecting this provides more detailed information when coding to a dictionary (e.g., WHO Drug Enhanced C Format now codes to the ingredient level for many brand-name medications)."
"CDASH Model v1.3","Interventions",,"62","--LLT","Lowest Level Term","MedDRA text description of the Lowest Level Term.",,,,"Char","QVAL","This information could be submitted in a SUPP--dataset as the value of SUPP--.QVAL where SUPP--.QNAM = "" --LLT"" and SUPP--.QLABEL = ""Lower Level Term"". Refer to the current SDTM and SDTMIG for instructions on placement of NSVs in SDTM domains. Sponsors should include an Origin column in the SUPPQ dataset to indicate that the data was ""ASSIGNED"".","","This field does not typically appear on the CRF. Sponsors will populate this through the coding process. This is applicable to items using MedDRA coding. Rationale for adding coding variables to CDASH is to provide a more complete data management package. This variable could be used in the PR domain for coding. Other dictionaries can be used and the appropriate coding elements added, if appropriate, in the SUPP--.QVAL dataset."
"CDASH Model v1.3","Interventions",,"63","--LLTCD","Lowest Level Term Code","MedDRA Lowest Level Term code.",,,,"Num","QVAL","This information could be submitted in a SUPP--dataset as the value of SUPP--.QVAL where SUPP--.QNAM= ""--LLTCD"" and SUPP--.QLABEL = ""Lower Level Term Code"". Refer to the current SDTM and SDTMIG for instructions on placement of NSVs in SDTM domains. Sponsors should include an Origin column in the SUPPQ dataset to indicate that the data was ""ASSIGNED"".","","This field does not typically appear on the CRF. Sponsors will populate this through the coding process. This is applicable to items using MedDRA coding. Rationale for adding coding variables to CDASH is to provide a more complete data management package. This variable could be used in the PR domain for coding. Other dictionaries can be used and the appropriate coding elements added, if appropriate, in the SUPP--.QVAL dataset."
"CDASH Model v1.3","Interventions",,"64","--PTCD","Preferred Term Code","MedDRA code for the Preferred Term.",,,,"Num","QVAL","This information could be submitted in a SUPP--.QVAL dataset where SUPP--.QNAM = ""--PTCD"" and SUPP--.QLABEL= ""Preferred Term Code"". Refer to the current SDTM and SDTMIG for instructions on placement of NSVs in SDTM domains. Sponsors should include an Origin column in the SUPPQ dataset to indicate that the data was ""ASSIGNED"".","","This field does not typically appear on the CRF. Sponsors will populate this through the coding process. This is applicable to items using MedDRA coding. Rationale for adding coding variables to CDASH is to provide a more complete data management package. This variable could be used in the PR domain for coding. Other dictionaries can be used and the appropriate coding elements added, if appropriate, in the SUPP--.QVAL dataset."
"CDASH Model v1.3","Interventions",,"65","--HLT","High Level Term","MedDRA text description of the High Level Term from the primary path.",,,,"Char","QVAL","This information could be submitted in a SUPP--dataset as the value of SUPP--.QVAL where SUPP--.QNAM = ""--HLT"" and SUPP--.QLABEL = ""High Level Term"". Refer to the current SDTM and SDTMIG for instructions on placement of NSVs in SDTM domains. Sponsors should include an Origin column in the SUPPQ dataset to indicate that the data was ""ASSIGNED"".","","This field does not typically appear on the CRF. Sponsors will populate this through the coding process. This is applicable to items using MedDRA coding. Rationale for adding coding variables to CDASH is to provide a more complete data management package. This variable could be used in the PR domain for coding. Other dictionaries can be used and the appropriate coding elements added, if appropriate, in the SUPP--.QVAL dataset."
"CDASH Model v1.3","Interventions",,"66","--HLTCD","High Level Term Code","MedDRA High Level Term code from the primary path.",,,,"Num","QVAL","This information could be submitted in a SUPP--.QVAL dataset where SUPP--.QNAM= ""--HLTCD"" and SUPP--.QLABEL=""High Level Term Code"". Refer to the current SDTM and SDTMIG for instructions on placement of NSVs in SDTM domains. Sponsors should include an Origin in the define metadata document to indicate that the data was ""ASSIGNED"".","","This field does not typically appear on the CRF. Sponsors will populate this through the coding process. This is applicable to items using MedDRA coding. Rationale for adding coding variables to CDASH is to provide a more complete data management package. This variable could be used in the PR domain for coding. Other dictionaries can be used and the appropriate coding elements added, if appropriate, in the SUPP--.QVAL dataset."
"CDASH Model v1.3","Interventions",,"67","--HLGT","High Level Group Term","MedDRA text description of the High Level Group Term from the primary path.",,,,"Char","QVAL","This information could be submitted in a SUPP--dataset as the value of SUPP--.QVAL where SUPP--.QNAM = ""--HLTGT"" and SUPP--.QLABEL= ""High Level Group Term"". Refer to the current SDTM and SDTMIG for instructions on placement of NSVs in SDTM domains. Sponsors should include an Origin column in the SUPPQ dataset to indicate that the data was ""ASSIGNED"".","","This field does not typically appear on the CRF. Sponsors will populate this through the coding process. This is applicable to items using MedDRA coding. Rationale for adding coding variables to CDASH is to provide a more complete data management package. This variable could be used in the PR domain for coding. Other dictionaries can be used and the appropriate coding elements added, if appropriate, in the SUPP--.QVAL dataset."
"CDASH Model v1.3","Interventions",,"68","--HLGTCD","High Level Group Term Code","MedDRA High Level Group Term code from the primary path.",,,,"Num","QVAL","This information could be submitted in a SUPP--dataset as the value of SUPP--.QVAL where SUPP--.QNAM = ""--HLTGTCD"" and SUPP--.QLABEL = ""High Level Group Term Code"". Refer to the current SDTM and SDTMIG for instructions on placement of NSVs in SDTM domains. Sponsors should include an Origin column in the SUPPQ dataset to indicate that the data was ""ASSIGNED"".","","This field does not typically appear on the CRF. Sponsors will populate this through the coding process. This is applicable to items using MedDRA coding. Rationale for adding coding variables to CDASH is to provide a more complete data management package. This variable could be used in the PR domain for coding. Other dictionaries can be used and the appropriate coding elements added, if appropriate, in the SUPP--.QVAL dataset."
"CDASH Model v1.3","Interventions",,"69","--SOC","Primary System Organ Class","MedDRA primary System Organ Class (SOC) description associated with the intervention.",,,,"Char","QVAL","This information could be submitted in a SUPP--.QVAL dataset where SUPP--.QNAM = ""--SOC"" and SUPP--.QLABEL = ""Primary System Organ Class"". Refer to the current SDTM and SDTMIG for instructions on placement of NSVs in SDTM domains. Sponsors should include an Origin in the define metadata document to indicate that the data was ""ASSIGNED"".","","This field does not typically appear on the CRF. Sponsors will populate this through the coding process. This is applicable to items using MedDRA coding. Rationale for adding coding variables to CDASH is to provide a more complete data management package. This variable could be used in the PR domain for coding. Other dictionaries can be used and the appropriate coding elements added, if appropriate, in the SUPP--.QVAL dataset."
"CDASH Model v1.3","Interventions",,"70","--SOCCD","Primary System Organ Class Code","MedDRA primary SOC code.",,,,"Num","QVAL","This information could be submitted in a SUPP--dataset as the value of SUPP--.QVAL where SUPP--.QNAM = ""--SOCCD"" and SUPP--.QLABEL = ""Primary System Organ Class Code"". Refer to the current SDTM and SDTMIG for instructions on placement of NSVs in SDTM domains. Sponsors should include an Origin column in the SUPPQ dataset to indicate that the data was ""ASSIGNED"".","","This field does not typically appear on the CRF. Sponsors will populate this through the coding process. This is applicable to items using MedDRA coding. Rationale for adding coding variables to CDASH is to provide a more complete data management package. This variable could be used in the PR domain for coding. Other dictionaries can be used and the appropriate coding elements added, if appropriate, in the SUPP--.QVAL dataset."
"CDASH Model v1.3","Events",,"1","--YN","Any [Event]","An indication whether or not any data were collected for the event topic.",,"Has the subject had any [event topic(s)/term/name] ([study specific time frame])?; [Was/Were] (there) any [event topic(s)] (reported) ([study specific time frame])?","Any [Event Topic] ([study specific time frame])","Char",,"Does not map to an SDTM variable. The SDTM annotated CRF indicates that this field is NOT SUBMITTED.","C66742","This is a field that can be used on any Events CRF to indicate whether or not there are data to record. Used primarily as a data cleaning field, this provides verification that all other fields on the CRF were deliberately left blank. If the response to YES/NO is planned to be submitted in SDTM submission datasets, this CDASH variable should not be used and the appropriate CDASH variable should be used instead (e.g., --OCCUR)."
"CDASH Model v1.3","Events",,"2","--TERM","Reported Term","The topic variable for an event observation, which is the reported or prespecified name of the event.",,"What [is/was] the [event topic/term/name]?; If --DECOD (is selected), [explain/specify/provide (more) detail(s)]?","[Event Topic]; [Specify/Specify Other/Explain/Provide Details (for [Event Topic])]","Char","--TERM","Maps directly to the SDTM variable listed in the SDTM Target column.","","Typically, --TERM collects the verbatim text for an event. If the term is preprinted/prespecified, the value can be populated into the --TERM variable as a hidden field (e.g., if Headache is printed on an AE CRF, ""Headache"" should be stored in AETERM). The CDASH field --TERM can also be used to collect any free-text values linked to the sponsor-standardized value collected in the CDASH field --DECOD. For example, --DECOD may have a value of ""OTHER"" and the associated free-text event topic is collected in --TERM. In this scenario, the Item prompt ""Specify Other"" may be used."
"CDASH Model v1.3","Events",,"3","--DECOD","Dictionary-Derived Term","The dictionary or sponsor-defined standardized text description of the topic variable; --TERM; or the modified topic variable (-- MODIFY), if applicable.",,"What [is/was] the [event/event topic] (at the EPOCH/study specific time frame)?","(Standardized) [Event/Event Topic] (at the EPOCH/Study Specific Time Frame)","Char","--DECOD","Maps directly to the SDTM variable listed in the SDTM Target column. If sponsors use a dictionary to code --TERM, they should provide the dictionary name and version in the Define-XML external codelist attributes. Sponsors should include an Origin column in the define metadata document to indicate that the data was ""ASSIGNED"".","","When populated by a coding dictionary (e.g., MedDRA), Question Text and Prompt may not be applicable. This is equivalent to the Preferred Term (PT) in MedDRA. CDISC Controlled terminology (NCOMPLT) is used for the DS domain only. The CDASH field --DECOD may be used to collect standardized pre-specified values (CDISC Controlled Terminology or sponsor-defined terminology) on a CRF. The CDASH field --TERM can be used to collect any free-text values linked to the sponsor-standardized value. For example, the CDASH field --DECOD may have a value of ""OTHER"" and the associated free-text event topic is collected in the CDASH field --TERM."
"CDASH Model v1.3","Events",,"4","--CAT","Category","A grouping of topic-variable values based on user-defined characteristics.",,"What [is/was] the category (of the [--TERM/event topic])?","[Category/Category Value]; NULL","Char","--CAT","Maps directly to the SDTM variable listed in the SDTM Target column.","","Sponsor-defined controlled terminology. This would most commonly be a heading on the CRF or screen, not a question to which the site would provide an answer. --SCAT can only be used if there is --CAT. If a question is asked, the response would typically be a sponsor-defined codelist. If the form is laid out as a grid, then words such as ""category"" can be included as the column header. Examples are provided in the CDASHIG metadata table and in the SDTMIG."
"CDASH Model v1.3","Events",,"5","--SCAT","Subcategory","A subdivision of the --CAT values based on user-defined characteristics.",,"What [is/was] the subcategory (of the [--TERM/event topic])?","[Subcategory/Subcategory Value]; NULL","Char","--SCAT","Maps directly to the SDTM variable listed in the SDTM Target column.","","Sponsor-defined controlled terminology. This would most commonly be a heading on the CRF or screen, not a question to which the site would provide an answer. --SCAT can only be used if there is --CAT. See examples in the CDASHIG metadata table and in the SDTMIG."
"CDASH Model v1.3","Events",,"6","--PRESP","Pre-Specified","An indication that a specific event, or group of events, is prespecified on a CRF.",,,,"Char","--PRESP","Maps directly to the SDTM variable listed in the SDTM Target column.","C66742","For prespecified events, --PRESP is a hidden field on a CRF defaulted to Y, or can be added during SDTM dataset creation. If a study collects both prespecified and free-text events, the value of --PRESP should be ""Y"" for all prespecified events and null for events reported as free text."
"CDASH Model v1.3","Events",,"7","--OCCUR","Occurrence","An indication whether the prespecified event or the group of events occurred when the occurrence of the specific event or group of events is solicited.",,"[Did/Does/Was] the subject (have) [--TERM] (after/before [study-specific time frame]) ?; [Did/Is] (the) [pre-specified --TERM/--DECOD] [occur/occurring]?","[--TERM]","Char","--OCCUR","Maps directly to the SDTM variable listed in the SDTM Target column.","C66742","If the term is preprinted/prespecified, then the value is mapped into the --TERM variable (e.g., if Headache is printed on an AE CRF, ""Headache"" should be stored in AETERM)."
"CDASH Model v1.3","Events",,"8","--REASOC","Reason for Occur Value","An explanation for why the event topic did or did not occur.",,"What [is/was] the reason the [event topic] [did/did not] [occur/happen]? What [is/was] the reason for the [event topic] occur value?","Reason [Event Topic] [(Did/Did Not) Occur]; Reason For Occur Value","Char","--REASOC","Maps directly to the SDTM variable listed in the SDTM Target column.","","The reason the event did or did not occur may be chosen from a sponsor-defined codelist (e.g., SUBJECT MISTAKE, SUBJECT REFUSED) or entered as free text. When --EASOC is used, --OCCUR must also be populated with a value of ""N"". Not used in the in AE domain."
"CDASH Model v1.3","Events",,"9","--PERF","[Observation] Performed","The variable used to indicate whether data are available, by having the site record the value as ""Yes"" or ""No"".",,"(Were/Was) (the) [event topic] [answered/done/assessed/evaluated/available]?","([event topic]) [Answered/Done/Assessed/Evaluated/Available]","Char","--STAT","This field does not map directly to an SDTM variable. May be used to populate a value into the SDTM variable --STAT to indicate when a pre-specified event was not assessed. For use with pre-specified events, when the CDASH variable --PERF=""N"", the value of the STDM variable --STAT is ""NOT DONE"". If --PERF= ""Y"", --STAT is null.","C66742","Using --PERF, a response of ""Y"" or ""N"" can be collected. A negative response can be collected as ""N"" and mapped to the --STAT variable in SDTM as ""NOT DONE"". --PERF can be used instead of --STAT when a Y/N response list is needed for implementation. Example: Were medical history conditions assessed?"
"CDASH Model v1.3","Events",,"10","--STAT","Completion Status","The variable used to indicate that data are not available, by having the site record the value as ""Not Done"".",,"Was the [event topic] not [answered/done/assessed/evaluated]?; Indicate if ([event topic] was) not [answered/assessed/done/evaluated].","Not Done","Char","--STAT","Maps directly to the SDTM variable listed in the SDTM Target column. If collected on the CRF, the Origin (column in the Define-XML) = ""CRF""; if populated by the sponsor from other sources (e.g., free text, a sponsor-defined listing for --REASND), Origin = ""DERIVED"".","C66789","A Not Done checkbox indicates the data are not available/question was not asked. Typically, there would be 1 checkbox for each prespecified event. This field can be useful when multiple questions are asked to confirm that a blank result field is intended to be blank."
"CDASH Model v1.3","Events",,"11","--REASND","Reason Not Done","An explanation for why the assessment/evaluation/question was not answered, collected, or done.",,"What [is/was] the reason that the ([data/information/sponsor-defined phrase]) was not [answered/collected/done/evaluated/assessed]?","Reason Not [Answered/Collected/Done/Evaluated/ Assessed/Available]","Char","--REASND","Maps directly to the SDTM variable listed in the SDTM Target column.","","Sponsor-defined controlled terminology may be used. The reason the data was not done/not collected may be chosen from a select list (e.g., broken equipment, subject refused) or entered as free text. When --REASND is used, --STAT should also be populated in the SDTM dataset."
"CDASH Model v1.3","Events",,"12","--LOC","Location of Event","A description of the anatomical location relevant for the event.",,"What [is/was] the anatomical location (of the [--TERM/event topic])?","Anatomical Location","Char","--LOC","Maps directly to the SDTM variable listed in the SDTM Target column.","C74456","This may be preprinted or collected. --LOC is used only to specify the anatomical location. --LAT, --DIR, --PORTOT are used to further describe the anatomical location."
"CDASH Model v1.3","Events",,"13","--LAT","Laterality","Qualifier for anatomical location, further detailing the side of the body relevant for the event.",,"What [is/was] the side (of the anatomical location of the event)?","Side","Char","--LAT","Maps directly to the SDTM variable listed in the SDTM Target column.","C99073","Further detailing the laterality of the location of the --TERM. This may be preprinted or collected. Sponsors may collect the data using a subset list of CT on the CRF."
"CDASH Model v1.3","Events",,"14","--DIR","Directionality","Qualifier further detailing the position of the anatomical location relative to the center of the body, organ, or specimen.",,"What [is/was] the directionality (of the anatomical location)?","Directionality","Char","--DIR","Maps directly to the SDTM variable listed in the SDTM Target column.","C99074","Further detailing the directionality of the location of the --TERM (e.g., ANTERIOR, LOWER, PROXIMAL). This may be preprinted or collected. Sponsors may collect the data using a subset list of CT on the CRF."
"CDASH Model v1.3","Events",,"15","--PORTOT","Portion or Totality","Qualifier for anatomical location, further detailing the distribution (i.e., arrangement of, apportioning of).",,"What [is/was] the portion or totality of the (anatomical location) involved?","Portion or Totality","Char","--PORTOT","Maps directly to the SDTM variable listed in the SDTM Target column.","C99075","Further detailing the portion or totality of the location of the --TERM. This may be preprinted or collected."
"CDASH Model v1.3","Events",,"16","--PARTY","Accountable Party","The party accountable for the transferable object (e.g., device, specimen) as a result of the activity performed in the associated --TERM variable.",,"Who [is/was] the accountable party?","Accountable Party","Char","--PARTY","Maps directly to the SDTM variable listed in the SDTM Target column.","","Sponsor-defined controlled terminology. The party could be an individual (e.g., subject), an organization (e.g., sponsor), or a location that is a proxy for an individual or organization (e.g., site). This is usually a somewhat general term that is further identified in the -- PRTYID variable (e.g., SITE, SPONSOR, SUBJECT)."
"CDASH Model v1.3","Events",,"17","--PRTYID","Identification of Accountable Party","Identification of the specific party accountable for the transferable object (e.g., device, specimen) after the action in -- TERM is taken.",,"What [is/was] the accountable party identifier?","Accountable Party ID","Char","--PRTYID","Maps directly to the SDTM variable listed in the SDTM Target column.","","Used in conjunction with --PARTY. This identifier is defined by the sponsor."
"CDASH Model v1.3","Events",,"18","--SEV","Severity/Intensity","The severity or intensity of the event.",,"What [is/was] the severity (of the event topic)?","Severity","Char","--SEV","Maps directly to the SDTM variable listed in the SDTM Target column.","","In the AE domain, AESEV uses CDISC Controlled Terminology (AESEV)."
"CDASH Model v1.3","Events",,"19","--ACN","Action Taken with Study Treatment","A description of the action taken with study treatment as a result of the event.",,"What action was taken with study treatment?","Action Taken with Study Treatment","Char","--ACN","Maps directly to the SDTM variable listed in the SDTM Target column.","C66767","How to handle multiple actions taken is a sponsor-specific decision. This variable is not to be used for actions taken with devices. See the SDTMIG-MD for information on reporting multiple actions and actions with multiple devices."
"CDASH Model v1.3","Events",,"20","--SER","Serious Event","An indication whether this event met the definition of serious.",,"[Is/Was] [the event topic/it] serious?","Serious","Char","--SER","Maps directly to the SDTM variable listed in the SDTM Target column.","C66742",
"CDASH Model v1.3","Events",,"21","--SOD","Occurred with Overdose","An indication the serious event occurred with an overdose.",,"Did the adverse event occur with an overdose?","Overdose","Char","--SOD","Maps directly to the SDTM variable listed in the SDTM Target column.","C66742","Although deprecated, this variable is included for illustrative purposes if the sponsor is continuing to collect legacy data. If the details regarding an SAE are collected in the clinical database, then it is recommended that a separate Yes/No variable be defined for each SAE type."
"CDASH Model v1.3","Events",,"22","--SMIE","Other Medically Important Serious Event","An indication whether additional categories for seriousness apply.",,"[Is/Was] the adverse event a medically important event not covered by other ""serious"" criteria?","Other Serious (Important Medical Events)","Char","--SMIE","Maps directly to the SDTM variable listed in the SDTM Target column.","C66742","If the details regarding an SAE are collected in the clinical database, then it is recommended that a separate Yes/No variable be defined for each SAE type."
"CDASH Model v1.3","Events",,"23","--SCAN","Involves Cancer","An indication whether the serious event was associated with the development of cancer.",,"[Is/Was] the adverse event associated with the development of cancer?","Cancer","Char","--SCAN","Maps directly to the SDTM variable listed in the SDTM Target column.","C66742","If the details regarding an SAE are collected in the clinical database, then it is recommended that a separate Yes/No variable be defined for each SAE type."
"CDASH Model v1.3","Events",,"24","--SCONG","Congenital Anomaly or Birth Defect","An indication whether the serious adverse event (SAE) was associated with a congenital anomaly or birth defect.",,"[Is/Was] the adverse event associated with a congenital anomaly or birth defect?","Congenital Anomaly/Birth Defect","Char","--SCONG","Maps directly to the SDTM variable listed in the SDTM Target column.","C66742","If the details regarding an SAE are collected in the clinical database, then it is recommended that a separate Yes/No variable be defined for each SAE type."
"CDASH Model v1.3","Events",,"25","--SDISAB","Persist or Signif Disability/Incapacity","An indication whether the SAE was associated with a persistent or significant disability or incapacity.",,"Did the adverse event result in disability or permanent damage?","Disability or Permanent Damage","Char","--SDISAB","Maps directly to the SDTM variable listed in the SDTM Target column.","C66742","If the details regarding an SAE are collected in the clinical database, then it is recommended that a separate Yes/No variable be defined for each SAE type."
"CDASH Model v1.3","Events",,"26","--SDTH","Results in Death","An indication whether the SAE resulted in death.",,"Did the adverse event result in death?","Death","Char","--SDTH","Maps directly to the SDTM variable listed in the SDTM Target column.","C66742","If the details regarding an SAE are collected in the clinical database, then it is recommended that a separate Yes/No variable be defined for each SAE type."
"CDASH Model v1.3","Events",,"27","--SHOSP","Requires or Prolongs Hospitalization","An indication whether the SAE resulted in an initial or prolonged hospitalization.",,"Did the adverse event result in initial or prolonged hospitalization of the subject?","Hospitalization (Initial or Prolonged)","Char","--SHOSP","Maps directly to the SDTM variable listed in the SDTM Target column.","C66742","If the details regarding an SAE are collected in the clinical database, then it is recommended that a separate Yes/No variable be defined for each SAE type."
"CDASH Model v1.3","Events",,"28","--SLIFE","Is Life Threatening","An indication whether the SAE was life threatening.",,"[Is/Was] the adverse event life threatening?","Life Threatening","Char","--SLIFE","Maps directly to the SDTM variable listed in the SDTM Target column.","C66742","If the details regarding an SAE are collected in the clinical database, then it is recommended that a separate Yes/No variable be defined for each SAE type."
"CDASH Model v1.3","Events",,"29","--ACNOTH","Other Action Taken","A description of other action(s) taken as a result of the event that are unrelated to dose adjustments of the study treatment.",,"What other action(s) [were/was] taken?","Other Actions Taken","Char","--ACNOTH","Maps directly to the SDTM variable listed in the SDTM Target column.","",
"CDASH Model v1.3","Events",,"30","--ACNDEV","Action Taken with Device","A description of the action taken, with respect to a device used in a study, which may or may not be the device under study, as a result of the event.",,"What action was taken with the device used in the study?","Action Taken with Device","Char","--ACNDEV","Maps directly to the SDTM variable listed in the SDTM Target column.","","Sponsor-defined controlled terminology. This variable is intended to be used like --ACN, but refers to device rather than study treatment. See the SDTMIG-MD for information on reporting multiple actions and actions with multiple devices."
"CDASH Model v1.3","Events",,"31","--REL","Causality","The investigator's opinion as to the relationship of the event to the study treatment.",,"[Is/Was] this event related to study treatment?","Relationship to Study Treatment","Char","--REL","Maps directly to the SDTM variable listed in the SDTM Target column.","","Sponsor-defined controlled terminology. ICH E2A and E2B examples include NOT RELATED, UNLIKELY RELATED, POSSIBLY RELATED, RELATED."
"CDASH Model v1.3","Events",,"32","--RELNST","Relationship to Non-Study Treatment","A description of the investigator's opinion as to whether the event may have been due to a treatment other than study treatment.",,"What [is/was] the relationship to non-study treatment?","Relationship to Non-Study Treatment","Char","--RELNST","Maps directly to the SDTM variable listed in the SDTM Target column.","","May be reported as free text. Example: ""MORE LIKELY RELATED TO ASPIRIN USE""."
"CDASH Model v1.3","Events",,"33","--PATT","Pattern of Event","A description of the pattern of the event over time.",,"What [is/was] the pattern of the event over time?","Pattern","Char","--PATT","Maps directly to the SDTM variable listed in the SDTM Target column.","","Sponsor-defined controlled terminology"
"CDASH Model v1.3","Events",,"34","--OUT","Outcome of Event","A description of the outcome of an event.",,"What [is/was] the outcome (of the event/event topic)?","Outcome","Char","--OUT","Maps directly to the SDTM variable listed in the SDTM Target column.","","CDISC Controlled Terminology (OUT) is used in the AE domain."
"CDASH Model v1.3","Events",,"35","--CONTRT","Concomitant or Additional Trtmnt Given","An indication whether a concomitant or additional was treatment given because of the occurrence of the event.",,"Was a concomitant or additional treatment given (due to this [event])?","Concomitant or Additional Trtmnt Given","Char","--CONTRT","Maps directly to the SDTM variable listed in the SDTM Target column.","C66742",
"CDASH Model v1.3","Events",,"36","--TOX","Toxicity","A description of toxicity quantified by --TOXGR (e.g., NCI CTCAE Short Name).",,,,"Char","--TOX","Maps directly to the SDTM variable listed in the SDTM Target column. The sponsor is expected to provide the toxicity scale name and version used to map the terms utilizing the Define-XML external codelist attributes.","","If used, --TOX would be populated with the decoded value from --TOXGR. For example, if --TERM is HYPERTENSION, and --TOXGR is ""1"", --TOX is populated with ""Prehypertension (systolic BP 120 - 139 mm Hg or diastolic BP 80 - 89 mm Hg)""."
"CDASH Model v1.3","Events",,"37","--TOXGR","Toxicity Grade","The toxicity grade, using a standard toxicity scale (e.g., NCI CTCAE).",,"What [is/was] the [NCI CTCAE/Name of Scale] grade?","[NCI CTCAE Toxicity] Grade","Char","--TOXGR","Maps directly to the SDTM variable listed in the SDTM Target column. The sponsor is expected to provide the toxicity scale name and version used to map the terms utilizing the Define-XML external codelist attributes.","","See ICH E3 Guidelines for CSR, Section 12.2.4.a CTCAE grade is commonly used in oncology studies although it can also be used elsewhere. Other published toxicity-like scales may be used."
"CDASH Model v1.3","Events",,"38","--ONGO","Ongoing Event","An indication whether the event is ongoing as of a given timepoint when no end date is provided.",,"[Is/Was] the [--TERM/event topic] ongoing (as of [the study-specific timepoint or period])?","Ongoing (as of the [Study-Specific Timepoint or Period])","Char","--ENRF; --ENRTPT","This does not map directly to an SDTM variable. May be used to populate a value into an SDTM relative timing variable such as --ENRF or --ENRTPT. When populating --ENRF, or --ENRTPT, if the value of the CDASH field --ONGO is ""Y"", a value from the CDISC CT (STENRF) may be used. When --ONGO refers to the study reference period (defined in DM.RFSTDTC to DM.RFENDTC), the SDTM variable --ENRF should be populated. When --ONGO is compared to another time point, the SDTM variables --ENRTPT and --ENTPT should be used. Note: --ENRTPT must refer to the time point anchor described in --ENTPT.","C66742","The CDASH field --ONGO allows specific question text/prompt about events ending prior to the given timepoint. Select the appropriate text when designing the CRF. This may also included in the CRF title or instructions. Used in conjunction with either a reference timepoint (--ENTPT, --ENRTPT) or in conjunction with the study reference period (described as RFSTDTC to RFENDTC). May also be used as a tick/checkbox. See CDASHIG Section 3.7 for more information."
"CDASH Model v1.3","Events",,"39","--DIS","Caused Study Discontinuation","An indication whether the event caused the subject to discontinue from the study.",,"Did the [--TERM/event topic] cause the subject to be discontinued from the study?","Caused Study Discontinuation","Char","QVAL","Does not map directly to an SDTM variable. For SDTM submission datasets, may be used to create a RELREC to link Event and Disposition records. The sponsor could submit ""--DIS"" in a SUPP-- dataset as a value of SUPP--.QVAL where SUPP--.QNAM is ""--DIS"" and SUPP--.QLABEL is ""Caused Study Discontinuation"", if appropriate.","C66742","May be used to create a RELREC to link the record to a Disposition record (see SDTMIG). The sponsor could submit ""--DIS"" in a SUPP-- dataset as a value of SUPP--.QVAL where SUPP--.QNAM is ""--DIS"" and SUPP--.QLABEL is ""Caused Study Discontinuation"", if appropriate."
"CDASH Model v1.3","Events",,"40","--CTRL","Disease or Symptom Under Control","An indication that the disease/symptoms were under control at the time of data collection.",,"[Is/Was] the [--TERM/event topic] under control?","[--TERM/Event Topic] Under Control","Char","QVAL","This information could be submitted in a SUPP-- dataset as the value of SUPP--.QVAL where SUPP--.QNAM is ""--CTRL"" and SUPP--.QLABEL is ""Disease or Symptom Under Control"". Refer to the current SDTM and SDTMIG for instructions on placement of non-standard variables (NSVs) in SDTM domains.","C66742","The conditions would typically be defined in the protocol. For example, a sponsor may ask the site to indicate whether a subject's hypertension is under control at the time of enrollment in the study."
"CDASH Model v1.3","Events",,"41","--REAS","Reason for the Event","A description of the reason for the event.",,"What [is/was] the reason (for the [--TERM/event topic])?","Reason for the [--TERM/Event Topic]","Char","QVAL","This information could be submitted in a SUPP-- dataset as the value of SUPP--.QVAL where SUPP--.QNAM is ""--REAS"" and SUPP--.QLABEL is ""Reason for the Event"". Refer to the current SDTM and SDTMIG for instructions on placement of NSVs in SDTM domains.","","To ensure data quality, it is recommended that sponsors develop controlled terminology. Reason for healthcare encounters could include LACK OF EFFICACY, ADVERSE EVENT, CHEMOTHERAPY, PHYSICAL THERAPY, INDICATION UNDER STUDY, NOT INDICATION UNDER STUDY."
"CDASH Model v1.3","Events",,"42","COVAL","Comment","A free-text comment.",,"[Protocol-specified Targeted Question]?","[abbreviated version of the protocol-specified targeted question]","Char","COVAL","This does not map directly to an SDTM variable. For the SDTM dataset, the CDASH variable COVAL maps to the SDTM variable COVAL (COVAL2, COVAL3) in the CO domain. Associate the free-text comment in the CO domain with the original record using RDOMAIN, IDVAR, IDVARVAL, COREF.","","If an additional free-text field is needed to provide a comment about a particular record, use the COVAL(n) field to collect the free text, and associate the free-text comment with the original record using SDTM variables RDOMAIN, IDVAR, IDVARVAL, COREF. See the SDTMIG for more information."
"CDASH Model v1.3","Events",,"43","--MODIFY","Modified Reported Term","If the value for --TERM is modified for coding purposes, then the modified text is placed here.",,,,"Char","--MODIFY","Maps directly to the SDTM variable listed in the SDTM Target column.","","This is not a data collection field that will appear on the CRF; sponsors will populate this through the coding process. Rationale for adding coding variables to CDASH is to provide a more complete data management package."
"CDASH Model v1.3","Events",,"44","--LLT","Lowest Level Term","The dictionary-derived text description of the lowest level term.",,,,"Char","--LLT","Maps directly to the SDTM variable listed in the SDTM Target column. The sponsor is expected to provide the dictionary name and version used to code the event utilizing the Define-XML external codelist attributes. Sponsors should include an Origin column in the define metadata document to indicate that the data was ""ASSIGNED"".","","This field does not typically appear on the CRF. Sponsors will populate this through the coding process (e.g., using MedDRA). Rationale for adding coding variables to CDASH is to provide a more complete data management package."
"CDASH Model v1.3","Events",,"45","--LLTCD","Lowest Level Term Code","The dictionary-derived code for the lowest level term.",,,,"Num","--LLTCD","Maps directly to the SDTM variable listed in the SDTM Target column. The sponsor is expected to provide the dictionary name and version used to code the event utilizing the Define-XML external codelist attributes. Sponsors should include an Origin column in the define metadata document to indicate that the data was ""ASSIGNED"".","","This field does not typically appear on the CRF. Sponsors will populate this through the coding process (e.g., using MedDRA). Rationale for adding coding variables to CDASH is to provide a more complete data management package."
"CDASH Model v1.3","Events",,"46","--PTCD","Preferred Term Code","The dictionary-derived code for the preferred term.",,,,"Num","--PTCD","Maps directly to the SDTM variable listed in the SDTM Target column. The sponsor is expected to provide the dictionary name and version used to code the event utilizing the Define-XML external codelist attributes. Sponsors should include an Origin in the define metadata to indicate that the data was ""ASSIGNED"".","","This field does not typically appear on the CRF. Sponsors will populate this through the coding process (e.g., using MedDRA). Rationale for adding coding variables to CDASH is to provide a more complete data management package."
"CDASH Model v1.3","Events",,"47","--SOC","Primary System Organ Class","The dictionary-derived text description of the primary system organ class (SOC).",,,,"Char","--SOC","Maps directly to the SDTM variable listed in the SDTM Target column. The sponsor is expected to provide the dictionary name and version used to code the event utilizing the Define-XML external codelist attributes. Sponsors should include an Origin column in the define metadata document to indicate that the data was ""ASSIGNED"".","","This field does not typically appear on the CRF. Sponsors will populate this through the coding process (e.g., using MedDRA). Rationale for adding coding variables to CDASH is to provide a more complete data management package."
"CDASH Model v1.3","Events",,"48","--SOCCD","Primary System Organ Class Code","The dictionary-derived code for the primary system organ class (SOC).",,,,"Num","--SOCCD","Maps directly to the SDTM variable listed in the SDTM Target column. The sponsor is expected to provide the dictionary name and version used to code the event utilizing the Define-XML external codelist attributes. Sponsors should include an Origin column in the define metadata document to indicate that the data was ""ASSIGNED"".","","This field does not typically appear on the CRF. Sponsors will populate this through the coding process (e.g., using MedDRA). Rationale for adding coding variables to CDASH is to provide a more complete data management package."
"CDASH Model v1.3","Events",,"49","--HLT","High Level Term","The dictionary-derived text description of the high level term for the primary system organ class (SOC).",,,,"Char","--HLT","Maps directly to the SDTM variable listed in the SDTM Target column. The sponsor is expected to provide the dictionary name and version used to code the event utilizing the Define-XML external codelist attributes. Sponsors should include an Origin column in the define metadata document to indicate that the data was ""ASSIGNED"".","","This field does not typically appear on the CRF. Sponsors will populate this through the coding process (e.g., using MedDRA). Rationale for adding coding variables to CDASH is to provide a more complete data management package."
"CDASH Model v1.3","Events",,"50","--HLTCD","High Level Term Code","The dictionary-derived code for the high level term for the primary system organ class (SOC).",,,,"Num","--HLTCD","Maps directly to the SDTM variable listed in the SDTM Target column. The sponsor is expected to provide the dictionary name and version used to code the event utilizing the Define-XML external codelist attributes. Sponsors should include an Origin column in the define metadata document to indicate that the data was ""ASSIGNED"".","","This field does not typically appear on the CRF. Sponsors will populate this through the coding process (e.g., using MedDRA). Rationale for adding coding variables to CDASH is to provide a more complete data management package."
"CDASH Model v1.3","Events",,"51","--HLGT","High Level Group Term","The dictionary-derived text description of the high level group term for the primary system organ class (SOC).",,,,"Char","--HLGT","Maps directly to the SDTM variable listed in the SDTM Target column. The sponsor is expected to provide the dictionary name and version used to code the event utilizing the Define-XML external codelist attributes. Sponsors should include an Origin column in the define metadata document to indicate that the data was ""ASSIGNED"".","","This field does not typically appear on the CRF. Sponsors will populate this through the coding process (e.g., using MedDRA). Rationale for adding coding variables to CDASH is to provide a more complete data management package."
"CDASH Model v1.3","Events",,"52","--HLGTCD","High Level Group Term Code","The dictionary-derived code for the high level group term for the primary system organ class (SOC).",,,,"Num","--HLGTCD","Maps directly to the SDTM variable listed in the SDTM Target column. The sponsor is expected to provide the dictionary name and version used to code the event utilizing the Define-XML external codelist attributes. Sponsors should include an Origin column in the define metadata document to indicate that the data was ""ASSIGNED"".","","This field does not typically appear on the CRF. Sponsors will populate this through the coding process (e.g., using MedDRA). Rationale for adding coding variables to CDASH is to provide a more complete data management package."
"CDASH Model v1.3","Events",,"53","--CNTMOD","Contact Mode","The way in which the event contact was conducted.",,"What was the contact mode?","Contact Mode","Char","--CNTMOD","Maps directly to the SDTM variable listed in the SDTM Target column.","","Terms like IN PERSON"", ""TELEPHONE"", ""IVRS"" may be used."
"CDASH Model v1.3","Events",,"54","--EPCHGI","Epi/Pandemic Related Change Indicator","An indication whether the event was changed due to an epidemic or pandemic.",,"Was the [event topic] changed due to an epidemic or pandemic?","Epi/Pandemic Related Change Indicator","Char","--EPCHGI","Maps directly to the SDTM variable listed in the SDTM Target column.","C66742","Not the same as whether a medical condition was caused by an epidemic or pandemic."
"CDASH Model v1.3","Events",,"55","--RLDEV","Relationship of Event to Device","A judgement as to the likelihood that the device caused the event.",,"[Is/Was] this event related to a device?","Relationship of Event to Device","Char","--RLDEV","Maps directly to the SDTM variable listed in the SDTM Target column.","","The device may or may not be the device under study. Controlled terminology from EC Directive MEDDEV 2.7/3b is required in EU but not US."
"CDASH Model v1.3","Findings",,"1","--YN","Any [Finding]","An indication whether or not any data was collected for the finding topic.",,"Has the subject had any [Findings topic(s)] ([study specific time frame])?; [Was/Were/Is] (there) [a/any] [Findings topic(s)] (reported/available) ([study specific time frame])?; Were all eligibility criteria met?","Any [Findings topic(s)] ([study specific time frame])","Char",,"Does not map to an SDTM variable. The SDTM annotated CRF indicates that this field is NOT SUBMITTED.","C66742","This is a field that can be used in any CRF to indicate whether or not there are data to record. Used primarily as a data-cleaning field or to dynamically drive EDC form functionality, this provides verification that all other fields on the CRF were deliberately left blank. For example, used in the DD domain to indicate no information on any death details are being provided, or used in the IE domain to indicate whether the subject met all the eligibility requirements for this study at the time the subject was enrolled. \n --PERF should be used to capture a response about whether planned measurements, tests, or observations were done."
"CDASH Model v1.3","Findings",,"2","--PERF","[Observation] Performed","An indication of whether or not a planned measurement, series of measurements, test, observation or specimen was performed or collected.",,"[Were (any)/Was (the)] [--TEST/topic] ([measurement(s)/test(s)/examination(s)/question(s)/assessment(s)/specimen(s)/sample(s)]) [performed/collected]?","[--TEST/topic] ([Measurement (s)/Test(s)/Examination(s)/Specimen(s)/Assessment(s)/Question(s) Sample(s)]) [Performed/Collected]","Char","--STAT","This field does not map directly to an SDTM variable. May be used to populate a value into the SDTM variable --STAT. If the CDASH variable --PERF=""N"", the value of the STDM variable --STAT is ""NOT DONE"". If --PERF= ""Y"", --STAT is null. A combination of SDTM variables (e.g., --CAT and --SCAT, --TPT ) is used to indicate that multiple tests were not done. In this situation, the SDTM variable --TESTCD would be populated with --ALL and an appropriate test name (--TEST) provided. See SDTMIG for additional information.","C66742","This field is used to capture a response to whether or not a planned measurement, test, or observation was performed. A negative response can be collected as ""N"" and mapped to the --STAT variable in SDTM as ""NOT DONE""."
"CDASH Model v1.3","Findings",,"3","--TESTCD","Short Name of Measurement, Test, or Exam","Short character value code for the test being performed.",,,,"Char","--TESTCD","Maps directly to the SDTM variable listed in the SDTM Target column. The SDTM variable --TESTCD may be determined from the value collected in --TEST. The SDTMIG variables --TESTCD and --TEST are required in SDTM.","","May be used as a column heading when converting from a vertical dataset format to a horizontal dataset format. --TESTCD is most useful as a variable name or variable naming fragment (e.g., [--TESTCD_--ORRES]) for the clinical database or EDC system for the field in which the result is collected for that test. The short value can be up to 8 characters. When individual codelist names are used for each domain, the CDASH model does not include any Codelist name."
"CDASH Model v1.3","Findings",,"4","--TEST","Name of Measurement, Test, or Exam","Descriptive name for the test being performed. Examples: Platelet, Systolic Blood Pressure, Summary (Min) RR Duration, Eye Examination.",,"What [is/was] the name (of the [measurement/test/examination/question/assessment])?","[Measurement/Test/Examination/Question/Assessment] (Name)","Char","--TEST","Maps directly to the SDTM variable listed in the SDTM Target column. The SDTM variable --TESTCD may be determined from the value collected in --TEST. The SDTMIG variables --TESTCD and --TEST are required in SDTM.","","The test name will usually be preprinted on the CRF, and not solicited as a question. If the form is laid out as a grid, then the column can be headed Test or Test Name. --TEST is most useful as the PROMPT on the field in which the RESULT for that test is collected. When individual codelist names are used for each domain, the CDASH model does not include any Codelist name."
"CDASH Model v1.3","Findings",,"5","--TSTDTL","Measurement, Test or Examination Detail","A further description of --TESTCD and --TEST.",,"What [is/was] the [measurement/test/examination/question/assessment] detail name?","[Measurement/Test/Examination/Question/Assessment] Detail (Name)","Char","--TSTDTL","Maps directly to the SDTM variable listed in the SDTM Target column.","","It is recommended that the test detail name be preprinted on the CRF. If the form is laid out as a grid, then the column can be headed Test or Test Name. When individual codelist names are used for each domain, the CDASH model does not include any Codelist name."
"CDASH Model v1.3","Findings",,"6","--CAT","Category","A grouping of topic-variable values based on user-defined characteristics.",,"What [is/was] the [type/category/name] (of the [measurement/test/examination/question/assessment/specimen/sample])?","[Category/Category Value]; NULL","Char","--CAT","Maps directly to the SDTM variable listed in the SDTM Target column.","","Sponsor-defined controlled terminology. This would most commonly be a heading on the CRF or screen, not a question to which the site would provide an answer. --SCAT can only be used if there is a --CAT. See examples in the CDASHIG metadata table and in the SDTMIG. If a question is asked, the response would typically be a sponsor-defined codelist. If the form is laid out as a grid, then Category (for example) could be included as the column header. Examples are provided in the CDASHIG metadata table or in the SDTMIG. Note: CDISC Controlled Terminology (IECAT) is used for the IE domain."
"CDASH Model v1.3","Findings",,"7","--SCAT","Subcategory","A sub-division of the --CAT values based on user-defined characteristics.",,"What [is/was] the [type/subcategory/name] (of the [measurement/test/examination/question/assessment/specimen/sample])?","[(Domain Name/Name) Subcategory]; NULL","Char","--SCAT","Maps directly to the SDTM variable listed in the SDTM Target column.","","Sponsor-defined controlled terminology. This would most commonly be a heading on the CRF or screen, not a question to which the site would provide an answer. --SCAT can only be used if there is a --CAT. Examples are provided in the CDASHIG metadata table and in the SDTMIG. If a question is asked, the response would typically be a sponsor-defined codelist. If the form is laid out as a grid, then Subcategory (for example) could be included in the column header. --SCAT can only be used if there is a --CAT. Examples are provided in the CDASHIG metadata table and in the SDTMIG."
"CDASH Model v1.3","Findings",,"8","--ORRES","Result or Finding in Original Units","Result of the measurement or finding, as originally received or collected.",,"What [is/was] the [result/amount/(subject's) characteristic] (of the [measurement/test/examination/question/assessment])?","([Result/Amount] of) [value from --TEST]","Char","--ORRES","Maps directly to the SDTM variable listed in the SDTM Target column.","","In most cases, the Question Text and Item Prompt for --ORRES are specific to the --TEST. The value of --TEST is most useful as the PROMPT on the field in which the RESULT for that test is collected. If the form is laid out as a grid, then Result (for example) could be included in the column header. On CRFs used for drug accountability, the prompt and question text can reflect that the ""amount"" of study drug dispensed/returned is collected rather than a result."
"CDASH Model v1.3","Findings",,"9","--ORRESU","Original Units","The unit of the result, as originally received or collected.",,"What [is/was] the unit (of the [measurement/test/examination/question/assessment])?","Unit","Char","--ORRESU","Maps directly to the SDTM variable listed in the SDTM Target column.","C71620","The Question Text and Item Prompt for --ORRESU may be specific to the --TEST. Should be preprinted on the CRF with the associated test when possible, rather than collected in a free-text field. Note: CDISC Controlled Terminology is used for the SDTMIG PP and VS domains (i.e., PKUNIT, VSRESU)."
"CDASH Model v1.3","Findings",,"10","--CRESU","Collected Non-Standard Unit","The unit of the result if it were collected as a non-standard unit.",,"What [is/was] the unit (of the [measurement/test/examination/question/assessment])?","Unit","Char","QVAL","This does not map directly to an SDTM variable. The collected non-standard unit(s) may be submitted in a SUPP--dataset as the value of SUPP--.QVAL when SUPP--.QNAM = --CRESU and SUPP.QLABEL= ""Collected Non-Standard Unit"". Refer to the current SDTM and SDTMIG for instructions on placement of non-standard variables (NSVs) in SDTM domains.","","The collected non-standard unit(s) should be reported as an equivalent standard unit in --ORRESU."
"CDASH Model v1.3","Findings",,"11","--DESC","Description of Finding","Text description of any findings.",,"What [is/was] the (description) of the [(abnormality/observed finding/Sponsor-defined)]?","(Abnormal) Findings","Char","--ORRES","This does not map directly to an SDTM variable. For the SDTM submission dataset, if the CDASH field -- RES = ""NORMAL/ABSENT"", populate the SDTM variables --ORRES and --STRESC with the value of the CDASH field --RES. If the value of the CDASH field --RES is ""ABNORMAL/PRESENT"", populate the SDTM variable --ORRES with the CDASH field --DESC. If the reported findings in --DESC are coded using a dictionary, then the SDTM variable --STRESC is populated with the dictionary preferred term and --MODIFY is populated with the modified text used for coding. If the reported findings in --DESC are not coded, then the SDTM variable --STRESC is populated with the CDASH --DESC field. The SDTM variable --NRIND may be populated with ""NORMAL"" or ""ABNORMAL"" if appropriate.","","--RES and --DESC are used when a question is asked to collect the finding result, with a follow-up question for a description of the finding. See CDASHIG Section 8.3.1, General CDASH Assumptions for Findings Domains."
"CDASH Model v1.3","Findings",,"12","--RES","Collected Result or Finding","The result of the measurement or finding, as originally received or collected.",,"What [is/was] the [result/amount] (of the [measurement/test/examination/question/assessment ] )?; [Is/Was] the result [normal/abnormal/absent/present/ sponsored defined response]?","([Result/Amount] of) [value from --TEST]","Char","--ORRES","This does not map directly to an SDTM variable. See CDASH variables --DESC or --RESOTH for mapping information.","","The CDASH field --RES is used when the collected results are not mapped directly to the SDTM variable --ORRES. --RES is typically used in conjunction with --DESC, or --RESOTH."
"CDASH Model v1.3","Findings",,"13","--RESOTH","Result Other","A free-text result providing further information about the original received or collected result.",,"If other is selected, [explain/specify/provide more detail]?","[Specify Other/Explain/Specify Details]","Char","--ORRES","When using this CDASH field, the ""OTHER"" value collected in the CDASH field --RES is mapped to the SDTM variable --STRESC and the value in the CDASH field --RESOTH is mapped to the SDTM variable --ORRES.","","--RES and ---RESOTH are used when a question is asked that allows the selection of a prespecified finding, with a follow-up question to ask about the prespecified response ""OTHER"". See CDASHIG Section 8.3.1, General Assumptions for Findings Domains."
"CDASH Model v1.3","Findings",,"14","--RESCAT","Result Category","A categorization of the result of a finding.",,"What [is/was] the result category (of the [measurement/test/examination/question/assessment])?","[--TEST] Result Category","Char","--RESCAT","Maps directly to the SDTM variable listed in the SDTM Target column.","","Sponsor-defined controlled terminology. Example: MALIGNANT or BENIGN for tumor findings. RESISTANCE VARIANT for genetic variation. Note: CDISC Controlled Terminology (MSRESCAT) is used for the MS domain."
"CDASH Model v1.3","Findings",,"15","--ORNRLO","Normal Range Lower Limit- Original Units","The lower end of normal range or reference range for continuous results stored in --ORRES.",,"What [is/was] the lower limit of the reference range (for the [measurement/test/examination/question/assessment])?","Normal Range Lower Limit","Char","--ORNRLO","Maps directly to the SDTM variable listed in the SDTM Target column.","","--ORNRLO should be populated only for continuous findings. The SDTM variable --STNRC should be populated only for non-continuous results. These data may be obtained from the lab or the electronic equipment. These data could be derived from a site- or lab-specific set of normal ranges stored in a look-up table."
"CDASH Model v1.3","Findings",,"16","--ORNRHI","Normal Range Upper Limit-Original Units","The upper end of normal range or reference range for continuous results stored in --ORRES.",,"What [is/was] the upper limit of the reference range (for the [measurement/test/examination/question/assessment])?","Normal Range Upper Limit","Char","--ORNRHI","Maps directly to the SDTM variable listed in the SDTM Target column.","","--ORNRHI should be populated only for continuous findings. The SDTM variable --STNRC should be populated only for non-continuous results. These data may be obtained from the lab or the electronic equipment. These data could be derived from a site- or lab-specific set of normal ranges stored in a look-up table."
"CDASH Model v1.3","Findings",,"17","--CSTNRC","Collected Character/Ordinal Normal Range","The normal reference ranges that are expressed as characters (""Negative to Trace"") or ordinal (-1 to 1).",,"What [is/was] the normal reference range (for this [measurement/test/examination/question/assessment])?","Normal Reference Range","Char","--STNRC","This does not map directly to an SDTM variable. For the SDTM submission dataset, maps to --STNRC.","","Should be populated for normal ranges that are reported as character in ordinal scale or if categorical ranges were supplied. These data may be obtained from the lab or the electronic equipment. These data could be derived from a site- or lab-specific set of normal ranges stored in a look-up table."
"CDASH Model v1.3","Findings",,"18","--NRIND","Normal/Reference Range Indicator","An indication or description of how the value compares to the normal range or reference range.",,"How [did/do] the reported values compare within the [reference/normal/expected] range?","Comparison to [Reference/Expected/Normal] Range","Char","--NRIND","Maps directly to the SDTM variable listed in the SDTM Target column.","C78736","Reference ranges may be defined by --ORNRLO, --ORNRHI, --STNRC or other objective criteria. Reference Range Indicator (e.g., Y, N; HIGH, LOW; NORMAL; ABNORMAL) may be included if not derived or determined programmatically after data collection. Should not be used to indicate clinical significance. Should not be used to indicate clinical significance."
"CDASH Model v1.3","Findings",,"19","--STAT","Completion Status","The variable used to indicate that data are not available, by having the site record the value as ""Not Done"".",,"Was the [--TEST ] not [completed/answered/done/assessed/evaluated]?; Indicate if (the [--TEST] was) not [answered/assessed/done/evaluated/performed].","Not Done","Char","--STAT","Maps directly to the SDTM variable listed in the SDTM Target column. If collected, the Origin (a column in the Define-XML) =""CRF"", if populated from other sources such as a free-text or sponsor-defined listing for --REASND, the Origin =""DERIVED"".","C66789","Used only when the response value is collected as NOT DONE or NULL in lieu of or in addition to the CDASH --PERF field. Typically a check box which indicates the test was NOT DONE. This field can be useful when multiple questions are asked to confirm that a blank result field is intentionally left blank."
"CDASH Model v1.3","Findings",,"20","--REASND","Reason Not Done","An explanation for why the data are not available.",,"What [is/was] the reason that the [Findings topic/data/information/sponsor-defined phrase] was not [collected/answered/done/assessed/evaluated]?","Reason Not [Answered/Collected/Done/Evaluated/Assessed/Available]","Char","--REASND","Maps directly to the SDTM variable listed in the SDTM Target column.","","Sponsor-defined controlled terminology may be used. The reason data are not available may be chosen from a sponsor-defined codelist (e.g., broken equipment, subject refused) or entered as free text. When --REASND is used, --STAT should also be populated in the SDTM-based dataset."
"CDASH Model v1.3","Findings",,"21","--NAM","Laboratory/Vendor Name","Name or identifier of the vendor (e.g., laboratory) providing the test results.",,"What was the name of the [vendor] used?","[Vendor Name]","Char","--NAM","Maps directly to the SDTM variable listed in the SDTM Target column.","","Recommended to collect on the CRF if vendor name was not collected at the site/study level or if multiple vendors are used by a site"
"CDASH Model v1.3","Findings",,"22","--LOINC","LOINC Code","The Logical Observation Identifiers Names and Codes (LOINC) code for the topic variable (e.g., a lab test).",,"What [is/was] the LOINC code?","LOINC Code","Char","--LOINC","Maps directly to the SDTM variable listed in the SDTM Target column.","",
"CDASH Model v1.3","Findings",,"23","--SPEC","Specimen Material Type","The type of specimen used for a measurement.",,"What [is/was] the specimen (material) type?","Specimen (Material) Type","Char","--SPEC","Maps directly to the SDTM variable listed in the SDTM Target column.","C78734",
"CDASH Model v1.3","Findings",,"24","--ANTREG","Anatomical Region","The specific anatomical or biological region of a tissue, organ specimen, or the region from which the specimen is obtained, as defined in the protocol (e.g, a section or part of what is described in the --SPEC variable).",,"What [is/was] the anatomical or biological region (of the [organ specimen/tissue])?","[Specimen/Organ/Tissue] Anatomical Region","Char","--ANTREG","Maps directly to the SDTM variable listed in the SDTM Target column.","","The SDTM variable --ANTREG is defined as a variable qualifier of the SDTM variable --SPEC."
"CDASH Model v1.3","Findings",,"25","--SPCCND","Specimen Condition","The condition of the specimen.",,"What [is/was] the condition of the specimen?","Specimen Condition","Char","--SPCCND","Maps directly to the SDTM variable listed in the SDTM Target column.","C78733","Standardized text describing the condition of the sample (e.g., HEMOLYZED, LIPEMIC)"
"CDASH Model v1.3","Findings",,"26","--CSPUFL","Collected Specimen Usability Flag","An indication about the usability of the specimen for obtaining the test result.",,"What is/was the usability (of this specimen)?; [Is/Was] the specimen usable?","Specimen Usability","Char","--SPCUFL","This does not map directly to an SDTM variable. For the SDTM dataset, if the CDASH variable --CSPUFL=""Y"", the value of the STDM variable --CSPUFL is ""Y"". If CSPULF=""N"", --CSPULF is null.","C66742",
"CDASH Model v1.3","Findings",,"27","--POS","Position of Subject During Observation","The position of the subject during a measurement or examination.",,"In what position was the subject during the [measurement/test/examination/question/assessment/specimen collection/sample collection]?; What was the position of the subject (during the [measurement/test/examination/question/assessment/specimen collection/sample collection])?","Position","Char","--POS","Maps directly to the SDTM variable listed in the SDTM Target column.","C71148","Note: CDISC Controlled Terminology (VSPOS) is used in the VS domain."
"CDASH Model v1.3","Findings",,"28","--LOC","Location Used for the Measurement","The anatomical location of the subject relevant to the collection of the measurement.",,"What [is/was] the anatomical location (of the [measurement/test/examination/question/assessment])?; What [is/was] the anatomical location where the [measurement/specimen/question/assessment] was [taken/collected]?","Anatomical Location","Char","--LOC","Maps directly to the SDTM variable listed in the SDTM Target column.","C74456","This may be preprinted or collected. --LOC is used only to specify the anatomical location. --LAT, --DIR, --PORTOT are used to further describe the anatomical location."
"CDASH Model v1.3","Findings",,"29","--LAT","Laterality","Qualifier for anatomical location, further detailing the side of the body.",,"What [is/was] the side (of the anatomical location of the [measurement/test/examination/question/assessment])?","Side","Char","--LAT","Maps directly to the SDTM variable listed in the SDTM Target column.","C99073","Further detailing the laterality of the location of the --TEST. This may be preprinted or collected."
"CDASH Model v1.3","Findings",,"30","--DIR","Directionality","Qualifier further detailing the position of the anatomical location, relative to the center of the body, organ, or specimen.",,"What [is/was] the directionality (of the anatomical location of the [measurement/test/examination/question/assessment])?","Directionality","Char","--DIR","Maps directly to the SDTM variable listed in the SDTM Target column.","C99074","Further detailing the directionality of the location of the --TEST (e.g., ANTERIOR, LOWER, PROXIMAL). This may be preprinted or collected. Sponsors may collect the data using a subset list of CT on the CRF."
"CDASH Model v1.3","Findings",,"31","--LOCDTL","Location Detail","A detailed description of the location of the identified finding.",,"What [were/are] additional details on the exact location of the [finding] so that it can be distinguished from other [findings] in the same anatomical location?","[Finding] Location Detail","Char","QVAL","This does not map directly to an SDTM variable. This information could be submitted in a SUPP-- dataset as the value of SUPP--.QVAL where SUPP--.QNAM=""--LOCDTL"" and SUPP--.QLABEL=""Location Detail"".","","Use if --LOC and --LAT and/or --DIR values cannot provide uniqueness from other identified findings. --LOCDTL is not meant to replace --LOC, --LAT, and/or --DIR, or to serve as the free-text description field for --LOC (e.g., Location, Other)."
"CDASH Model v1.3","Findings",,"32","--PORTOT","Portion or Totality","Qualifier for anatomical location further detailing the distribution (i.e., arrangement of, apportioning of).",,"What [is/was] the portion or totality (of the anatomical location of the [measurement/test/examination/question/assessment])?","Portion or Totality","Char","--PORTOT","Maps directly to the SDTM variable listed in the SDTM Target column.","C99075","Further detailing the portion or totality of the location of the --TEST. This may be pre-printed or collected."
"CDASH Model v1.3","Findings",,"33","--METHOD","Method of Test or Examination","The method of the test or examination.",,"What was the method (used for the [measurement/test/examination/question/assessment])?; What was the method (used to [measure/test/examine/question/assess/evaluate/identify] the [finding])?","Method","Char","--METHOD","Maps directly to the SDTM variable listed in the SDTM Target column.","C85492","Note: CDISC Controlled Terminology (EGMETHOD) is used in the EG domain."
"CDASH Model v1.3","Findings",,"34","--LEAD","Lead Identified to Collect Measurements","The lead or leads identified to capture the measurement for a test from an instrument.",,"What [is/was] the lead (used to measure [measurement/test/examination/question/assessment])?","Lead","Char","--LEAD","Maps directly to the SDTM variable listed in the SDTM Target column.","","Note: CDISC Controlled Terminology (EGLEAD) is used in the EG domain."
"CDASH Model v1.3","Findings",,"35","--CSTATE","Consciousness State","The consciousness state of the subject at the time of measurement.",,"What [is/was] the consciousness state of the subject (at the time of the [measurement/test/examination/question/assessment])?","Consciousness State","Char","--CSTATE","Maps directly to the SDTM variable listed in the SDTM Target column.","",
"CDASH Model v1.3","Findings",,"36","--FAST","Fasting Status","An indication as to whether the subject had abstained from food/water for the specified amount of time.",,"[Is/Was] the subject fasting (prior to the [test being performed/sample being collected])?","Fasting","Char","--FAST","Maps directly to the SDTM variable listed in the SDTM Target column.","C66742",
"CDASH Model v1.3","Findings",,"37","--EVAL","Evaluator","The role of the person providing the evaluation.",,"Who provided the (sponsor-defined phrase) information?; Who was the evaluator?","[Evaluator/Reporter]","Char","--EVAL","Maps directly to the SDTM variable listed in the SDTM Target column.","C78735","Used only for results that are subjective (e.g., assigned by a person or a group). May be a preprinted or collected. Sponsors may collect the data using a subset list of CT on the CRF. Not used in QS, FT, and clinical classifications use case of RS."
"CDASH Model v1.3","Findings",,"38","--EVALID","Evaluator Identifier","An identifier used to distinguish multiple evaluators with the same role, recorded in --EVAL.",,"What [is/was] the identifier of the [evaluator name/reporter name] (providing the-sponsor-defined phrase- information)?","[Evaluator/Reporter] Identifier","Char","--EVALID","Maps directly to the SDTM variable listed in the SDTM Target column.","C96777","Not used in QS, FT, and clinical classifications use case of RS."
"CDASH Model v1.3","Findings",,"39","--ACPTFL","Accepted Record Flag","An indication that the evaluation is considered, by an independent assessor, to be the accepted or final evaluation.",,"[Is/Was] this record considered to be the [accepted/final] evaluation?","[Accepted/Final] Evaluation","Char","--ACPTFL","Maps directly to the SDTM variable listed in the SDTM Target column.","C66742","Used where more than 1 assessor provides an evaluation of a result or response. Typically a checkbox with the value of ""Y"" or ""NULL"", which indicates the evaluation was accepted."
"CDASH Model v1.3","Findings",,"40","--TOX","Toxicity","The description of toxicity quantified by --TOXGR (e.g., NCI CTCAE Short Name).",,"What [is/was] the description of the [NCI CTCAE/scale name] toxicity?","[NCI CTCAE/Scale Name ] Toxicity","Char","--TOX","Maps directly to the SDTM variable listed in the SDTM Target column.","","Sponsors may choose not to collect --TOX. If collected, sponsors should specify which scale and version is used in the Sponsor Comments column of the Define-XML document."
"CDASH Model v1.3","Findings",,"41","--TOXGR","Toxicity Grade","The toxicity grade using a standard toxicity scale (e.g., NCI CTCAE).",,"What [is/was] the [NCI CTCAE Toxicity/scale name] grade?","[NCI CTCAE Toxicity/scale name] Grade","Char","--TOXGR","Maps directly to the SDTM variable listed in the SDTM Target column.","","Sponsors may choose not to collect --TOXGR. If collected, sponsors should specify which scale and version is used in the Sponsor Comments column of the Define- XML document. Note: CDISC Controlled Terminology (TOXGRV3 or TOXGRV4) may be used for this variable."
"CDASH Model v1.3","Findings",,"42","--SEV","Severity","The severity or intensity of a particular finding.",,"What [is/was] the severity (of the finding)?","Severity","Char","--SEV","Maps directly to the SDTM variable listed in the SDTM Target column.","",
"CDASH Model v1.3","Findings",,"43","--CLSIG","Clinical Significance","An indication whether the test results were clinically significant.",,"[Is/Was] the ([measurement/test/examination/question/assessment]) result clinically significant?","([Measurement/Test/Examination/])/Clinically Significant","Char","--CLSIG","Maps directly to the SDTM variable listed in the SDTM Target column.","C66742",
"CDASH Model v1.3","Findings",,"44","--DTHREL","Relationship to Death","An indication of the relationship of a particular finding to the death of a subject.",,"[Is/Was] this findings related to the death of the subject?","Related to Death","Char","--DTHREL","Maps directly to the SDTM variable listed in the SDTM Target column.","C66742",
"CDASH Model v1.3","Findings",,"45","--CLLOQ","Collected Lower Limit of Quantitation","The collected lower limit of quantitation for an assay, represented in text format or as a range, such as less than a specified numeric value.",,"What [is/was] the lower limit of quantification (for the [measurement/test/examination])?","Lower Limit of Quantification","Num","--LLOQ","This does not map directly to an SDTM variable. For the SDTM dataset, the CDASH variable, --CLLOQ maps to the SDTM variable --LLOQ. The units will be those used for --STRESU.","","These data may be obtained directly from the lab or the electronic equipment and not collected on the CRF. The units are those used for the SDTM variable --STRESU. This is not the lower limit of normal of the reference range for the test. The SDTM variable --LLOQ must be populated as a numeric."
"CDASH Model v1.3","Findings",,"46","--CULOQ","Collected Upper Limit of Quantitation","The collected upper limit of quantitation for an assay, represented in text format or as a range, such as greater than a specified numeric value.",,"What [is/was] the upper limit of quantification (for the [measurement/test/examination])?","Upper Limit of Quantification","Num","--ULOQ","This does not map directly to an SDTM variable. For the SDTM dataset, the CDASH variable, --CULOQ maps to the SDTM variable --ULOQ. The units will be those used for --STRESU.","","These data may be obtained directly from the lab or the electronic equipment and not collected on the CRF. The units are those used for the SDTM variable --STRESU. This is not the upper limit of normal of the reference range for the test. The SDTM variable --ULOQ must be populated as a numeric."
"CDASH Model v1.3","Findings",,"47","--COND","Test Condition Met","An indication whether the testing conditions defined in the protocol were met (e.g., low-fat diet).",,"[Are/Were] the protocol-defined testing conditions met?","Defined Testing Condition Met","Char","QVAL","This information could be submitted in a SUPP--dataset as the value of SUPP--.QVAL when SUPP--.QNAM = --COND and SUPP.QLABEL=""Test Condition Met"". Refer to the current SDTM and SDTMIG for instructions on placement of NSVs in SDTM domains.","C66742",
"CDASH Model v1.3","Findings",,"48","--REPNUM","Repetition Number","The instance number of a test that is repeated within a given timeframe for the same test. The level of granularity can vary (e.g., within a time point or within a visit).",,"What was the repetition number within (the) [time point/visit/timeframe] (for this [measurement/test/examination/question/assessment])?","Repetition Number within (the) [time point/visit/timeframe]","Char","--REPNUM","Maps directly to the SDTM variable listed in the SDTM Target column.","","The repetition number of the test/measurement within the time point may be pre-printed on the CRF (e.g., multiple measurements of blood pressure, multiple analyses of a sample)."
"CDASH Model v1.3","Findings",,"49","--DATFL","Same as Previous Sample Collection Date","A flag indicating that the date (or start date) is the same as the previous specimen collection date (or start date).",,"[Is/Was] this specimen/sample collected on the same date as the (last/previous specimen/sample) (collected/collection ended)?","Same as ([Last/Previous]) ([Specimen/Sample]) ([Collection/Collection End]) Date","Char",,"Does not map to an SDTM variable. The SDTM annotated CRF indicates that this field is NOT SUBMITTED.","","When a series of specimens are recorded on a single CRF, this field is tied to the collection date to allow for the flag to be used as a surrogate for the date field. Its selection means that the date of this specimen is the same as the date of the last specimen collected (in the series). Usually a checkbox or tick box on the CRF. This would typically be used in the PC domain."
"CDASH Model v1.3","Findings",,"50","--ENDATF","Same as Current Sample Collection Start Date","A flag indicating that the specimen/sample collection ended on the same date the current/previous specimen collection started.",,"[Is/Was] this specimen/sample collection ended on the same day as the current specimen's/sample's start date?","Same as Current (Specimen's/Sample Collection) Start Date","Char",,"Does not map to an SDTM variable. The SDTM annotated CRF indicates that this field is NOT SUBMITTED.","","When a series of interval sample/specimen collections are recorded on a single CRF, this field is tied to the start of the current collection to allow for the flag to be used as a surrogate for the date field. Its selection means that the end date of this specimen/sample collection is the same as the start date of the current specimen/sample collected. Usually a checkbox or tick box on the CRF. This would typically be used in the PC domain."
"CDASH Model v1.3","Findings",,"51","COVAL","Comment","A free-text comment.",,"[Protocol-specified Targeted Question]?","[abbreviated version of the protocol-specified targeted question]","Char","COVAL","This does not map directly to an SDTM variable. For the SDTM dataset, the CDASH variable --COVAL maps to the SDTM variable COVAL (COVAL2, COVAL3) in the CO domain. Associate the free-text comment in the CO domain with the original record using RDOMAIN, IDVAR, IDVARVAL, COREF.","","If an additional free-text field is needed to provide a comment about a particular record, use the COVAL(n) field to collect the free text, and associate the free-text comment with the original record using SDTM variables RDOMAIN, IDVAR, IDVARVAL, COREF. See the SDTMIG for additional information."
"CDASH Model v1.3","Findings",,"52","--MODIFY","Modified Term","If the value for --ORRES is modified for coding purposes, then the modified text is placed here.",,,,"Char","--MODIFY","Maps directly to the SDTM variable listed in the SDTM Target column.","","This is not a data collection field that will appear on the CRF; sponsors will populate this through the coding process. The rationale for adding coding variables to CDASH is to provide a more complete data management package."
"CDASH Model v1.3","Findings",,"53","--BODSYS","Body System or Organ Class","Body system or organ class that is involved for a finding, from the standard hierarchy for dictionary-coded results.",,"What is/was the [body system/organ system]?","[Body System/Organ System]","Char","--BODSYS","Maps directly to the SDTM variable listed in the SDTM Target column.","","--BODSYS should be assigned using a coding system. If included on the CRF, it is pre-populated and must be paired by the sponsor with specific prespecified verbatim terms. If not included on the CRF, --BODSYS is assigned through the coding process."
"CDASH Model v1.3","Findings",,"54","--CNTMOD","Contact Mode","The way in which the event contact was conducted.",,"What was the contact mode?","Contact Mode","Char","--CNTMOD","Maps directly to the SDTM variable listed in the SDTM Target column.","","Terms like ""IN PERSON"", ""TELEPHONE"", ""IVRS"" may be used"
"CDASH Model v1.3","Findings",,"55","--EPCHGI","Epi/Pandemic Related Change Indicator","An indication whether the event was changed due to an epidemic or pandemic.",,"Was the [event topic] changed due to an edidemic or pandemic?","Epi/Pandemic Related Change Indicator","Char","--EPCHGI","Maps directly to the SDTM variable listed in the SDTM Target column.","C66742","Not the same as whether a medical condition was caused by an epidemic or pandemic."
"CDASH Model v1.3","Findings",,"56","--TMTHSN","Test Method Sensitivity","The sensitivity of the test methodology with respect to observation, detection, or quantification.",,"What is the [test method] sensitivity?","[Test Method] Sensitivity","Char","--TMTHSN","Maps directly to the SDTM variable listed in the SDTM Target column.","C179589","The sensitivity of the test may be collect with terms luch as ""LOW SENSITIVITY"", ""HIGH SENSITIVITY"", ""ULTRA-HIGH SENSITIVITY""."
"CDASH Model v1.3","Findings",,"57","--REASPF","Reason Test Performed","The explanation for why a test, measurement, or assessment is executed.",,"What is the reason the [test] was performed?","[Test] Performed","Char","--REASPF","Maps directly to the SDTM variable listed in the SDTM Target column.","",
"CDASH Model v1.3","Findings",,"58","--DISTR","Distribution Pattern of Finding","A description of the distribution pattern of a finding within the examined area.",,"What is the [pattern/distribution] of the [findings/results] within the examined area?","Distribution Pattern of Finding","Char","--DISTR","Maps directly to the SDTM variable listed in the SDTM Target column.","","Terms such as ""FOCAL"", ""MULTIFOCAL"", ""DIFFUSE"" may be used to describe the distribution pattern."
"CDASH Model v1.3","Findings",,"59","--RESTYP","Result Type","The classification of the kind of result (i.e., property type) originally reported for the test.",,"What is the [classification/type] of the [test/test result]?","Result Type","Char","--RESTYP","Maps directly to the SDTM variable listed in the SDTM Target column.","C179588","Terms such as ""SUBSTANCE CONCENTRATION"", ""MASS RATE"", ""ARBITRARY CONCENTRATION"" may be used."
"CDASH Model v1.3","Findings",,"60","--RESSCL","Result Scale","The classification of the scale of the original result value.",,"What is the [scale classification/type] used for the [test/test result]?","Result Scale","Char","--RESSCL","Maps directly to the SDTM variable listed in the SDTM Target column.","C177910","Terms such as ""ORDINAL"", ""NOMINAL"", ""QUANTITATIVE"", ""NARRATIVE"" may be used."
"CDASH Model v1.3","Findings",,"61","--TSTCND","Test Condition","The planned condition imposed by the assay system on the specimen at the time the test is performed. \n \n \n",,"What is the (planned) [condition] on the specimen?","Test Condition","Char","--TSTCND","Maps directly to the SDTM variable listed in the SDTM Target column.","","This may be terms relating to stimulating or activating agents, assay temperature, incubation time (e.g., ""STIMULATED"", ""NON-STIMULATED"", ""25 C"", ""37 C""). Used only in the CP, IS, and LB domains."
"CDASH Model v1.3","Findings",,"62","--CNDAGT","Test Condition Agent","The textual description of the agent used to impose a test condition identified in --TSTCND.",,"What is the [test condition agent]?","[Test Condition Agent]","Char","--CNDAGT","Maps directly to the SDTM variable listed in the SDTM Target column.","","The agent would typically be selected from a list of terms, provided by an external vendor, or prespecified in the protocol. Used only in the CP, IS, and LB domains."
"CDASH Model v1.3","Findings",,"63","--BDAGNT","Binding Agent","The textual description of the agent that's binding to the entity in the --TEST variable.",,"What is the [binding agent] used for the [--test]?","[Test] Binding Agent","Char","--BDAGNT","Maps directly to the SDTM variable listed in the SDTM Target column.","","This typically would prespecified in the protocol and not directly collected or provided by a by an external vendor. The binding agent may be, but is not limited to, a test article, a portion of the test article, a related compound, an endogenous molecule, an allergen, or an infectious agent. Used only in CP, IS, and LB domains."
"CDASH Model v1.3","Findings",,"64","--TSTOPO","Test Operational Objective","The textual description of the high-level purpose of the test at the operational level.",,"What is the [operational objective/reason] of the [test]?","[Test] Operational Objective","Char","--TSTOPO","Maps directly to the SDTM variable listed in the SDTM Target column.","","Terrms such as ""SCREEN"", ""CONFIRM"", ""QUANTIFY"" may be used."
"CDASH Model v1.3","Findings",,"65","--COLSRT","Collected Summary Result Type","An indicatation of the type of a collected summary result.",,"What type of [(summary)result for the test] is collected?","Collected [(summary) result] Type","Char","--COLSRT","Maps directly to the SDTM variable listed in the SDTM Target column.","","This is used for summary results collected on a CRF or provided by an external vendor (e.g., central lab). If the summary result is derived by the sponsor using individual source data records, this is not used. This is usually prespecified by the sponsor."
"CDASH Model v1.3","Findings",,"66","--CHRON","Chronicity of Finding","The characterization of the duration of a biological process resulting in a particular finding.",,"What is the [chronicity of finding of the biological process]?","Chronicity of Finding","Char","--CHRON","Maps directly to the SDTM variable listed in the SDTM Target column.","","Terms such as ACUTE"", ""CHRONIC"", ""SUBACUTE"" may be used."
"CDASH Model v1.3","Findings",,"67","--RUNID","Run ID","A sequence of characters used to uniquely identify a particular run of a test on a particular batch of samples.",,"What is the run-id for the [sample/batch/replicate]?","Run ID","Char","--RUNID","Maps directly to the SDTM variable listed in the SDTM Target column.","",
"CDASH Model v1.3","Findings About",,"1","--OBJ","Object of the Observation","Describes the event or intervention whose property is being measured in --TESTCD/--TEST.",,,,"Char","--OBJ","Maps directly to the SDTM variable listed in the SDTM Target column.","","The --OBJ will usually be preprinted or hidden, and not solicited as an actual question. These FA domains are usually created by each sponsor. CDASH has used this variable in the SR domain."
"CDASH Model v1.3","Identifiers",,"1","SPONSOR","Sponsor","An identifier for the entity with the overall regulatory responsibility for the protocol.",,"What is the sponsor identifier?","Sponsor","Char","TSVAL","For the SDTM dataset, the value in the CDASH field SPONSOR maps to the SDTM variable TSVAL. The SDTM variable TSPARMCD is populated with ""SPONSOR"" and the SDTM variable TSPARM is populated with ""Clinical Study Sponsor"".","","In some cases, the combination of Sponsor ID with Study ID and Site ID might be needed by external parties (e.g., CRO or for a multisponsor study) to uniquely identify sites belonging to the study for the given sponsor."
"CDASH Model v1.3","Identifiers",,"2","DOMAIN","Domain Abbreviation","A 2-character abbreviation for the domain most relevant to the observation.",,,,"Char","DOMAIN","Maps directly to the SDTM variable listed in the SDTM Target column.","C66734","This field can be derived into the database or created during SDTM dataset creation before submission. The domain abbreviation is also used as a prefix for variables to ensure uniqueness when datasets are merged."
"CDASH Model v1.3","Identifiers",,"3","STUDYID","Study Identifier","A unique identifier for a study.",,"What [is/was] the study identifier?","[Protocol/Study]","Char","STUDYID","Maps directly to the SDTM variable listed in the SDTM Target column.","","Although this field is not typically captured on a CRF, it should be displayed clearly on the CRF and/or the EDC system. This field can be included into the database or populated during SDTM-based dataset creation before submission."
"CDASH Model v1.3","Identifiers",,"4","SITEID","Study Site Identifier","A unique identifier for a site within a study.",,"What [is/was] the site identifier?","Site (Identifier)","Char","SITEID","For the SDTM dataset, the value in the CDASH field SITEID maps to the SDTM variable DM.SITEID.","","Paper: This is typically preprinted in the header of each CRF page for single site studies. For studies with multiple sites, this field may be left blank so that the number can be recorded by the site, or it may be preprinted for the CRFs that are shipped to each site. \n EDC: This should be prepopulated."
"CDASH Model v1.3","Identifiers",,"5","INVID","Investigator Identifier","An identifier to describe the investigator for the study.",,"What [is/was] the investigator identifier?","Investigator (Identifier)","Char","INVID","For the SDTM dataset, the value in the CDASH field INVID maps to the SDTM variable DM.INVID.","","May be used in addition to the SITEID. Not needed if SITEID is equivalent to INVID."
"CDASH Model v1.3","Identifiers",,"6","SUBJID","Subject Identifier for the Study","A unique subject identifier within a site and a study.",,"What [is/was] the (study) [subject/participant] identifier?","[Subject/Participant] (Identifier)","Char","SUBJID","For the SDTM dataset, the value in the CDASH field SUBJID maps to the SDTM variable DM.SUBJID.","","This CDASH variable is typically collected in all CDASH domains. However, this CDASH variable is populated only in the SDTMIG DM domain. The recording of multiple SUBJID for the same subject is a known SDTM issue. If a subject is screened more than once, there may be more than 1 SUBJID per instance of being screened within the trial. See FDA Study Data Technical Conformance Guide, Section 4.1.1.2.a"
"CDASH Model v1.3","Identifiers",,"7","FOCID","Focus of Study Specific Interest","An identifier used to indicate a focus of study-specific interest on or within a subject or specimen (as described in the protocol), for which a measurement, test, or examination was performed, such as a drug application site (e.g., ""Injection site 1"", ""Biopsy site 1"", ""Treated site 1"") or a more specific focus (e.g., ""OD"" (right eye) or ""Upper left quadrant of the back""). The value in this variable should have inherent semantic meaning.",,"[Protocol specific question]?","[Protocol Specific Prompt]","Char","FOCID","Maps directly to the SDTM variable listed in the SDTM Target column.","","This SDTM variable was defined in SDTM v1.5, but was not included in SDTMIG 3.2. Sponsors should consider the SDTM version being used when creating submission datasets. If using pre-SDTM 1.5, the CDASH-to-SDTM mapping may need to be defined by the sponsor because FOCID was not a valid SDTM variable in these versions."
"CDASH Model v1.3","Identifiers",,"8","--SPID","Sponsor-Defined Identifier","A sponsor-defined identifier. In CDASH, This is typically used for pre-printed or auto-generated numbers on the CRF, or any other type of identifier that does not already have a defined CDASH identifier field.",,"[Sponsor-defined question]","[Sponsor defined]","Char","--SPID","Maps directly to the SDTM variable listed in the SDTM Target column. May be used to create RELREC to link this record with a record in another domain.","","Because SPID is a sponsor-defined identifier, conformance to Question Text or Item Prompt is not applicable. Typically used as an identifier in a data query to communicate clearly to the site the specific record in question or to reconcile data. May be used to record preprinted number (e.g., line number, record number) on the CRF. This field may be populated by the sponsor's data collection system."
"CDASH Model v1.3","Identifiers",,"9","--GRPID","Group ID","A group identifier used to link together a block of related records within a subject in a domain.",,"What [is/was] the [test/procedure/observation] group identifier?","[Test/Procedure/Observation] Group Identifier","Char","--GRPID","Maps directly to the SDTM variable listed in the SDTM Target column.","","Used to link together a block of related records in a single domain for a subject. This group identifier may be used to tie together all the tests collected in a Findings domain using a denormalized approach (see CDASHIG Section 8.3.1, General CDASH Assumptions for Findings Domains). This field may be populated by the sponsor's data management system."
"CDASH Model v1.3","Identifiers",,"10","--LNKID","Link ID","An identifier used to link related records across domains.",,"What [is/was] the [test/procedure/observation] identifier?","[Domain/Observation] Link Identifier","Char","--LNKID","Maps directly to the SDTM variable listed in the SDTM Target column.","","This may be a one-to-one or a one-to-many relationship. Example: A single tumor may have multiple measurements/assessments performed at each study visit."
"CDASH Model v1.3","Identifiers",,"11","--LNKGRP","Link Group ID","An identifier used to link related records across domains.",,"What [is/was] the [domain/observation] link group ID?","[Domain/Observation] Link Group Identifier","Char","--LNKGRP","Maps directly to the SDTM variable listed in the SDTM Target column.","","This will usually be a many-to-one relationship. Example: Multiple tumor measurements/assessments will contribute to a single response-to-therapy determination record."
"CDASH Model v1.3","Identifiers",,"12","--REFID","Reference ID","An internal or external identifier (e.g., lab specimen ID, UUID for an ECG waveform or a medical image).",,"What [is/was] the [test/procedure/domain/observation/specimen/sample/report] [reference identifier/accession number/identifier]?","[Test/Procedure/Domain/Observation/Specimen/Sample/Report] [Reference/Accession Number/Identifier]","Char","--REFID","Maps directly to the SDTM variable listed in the SDTM Target column.","",
"CDASH Model v1.3","Identifiers",,"13","--AENO","Related Adverse Event ID","A numerical identifier for the adverse event that is associated with/related to this intervention/finding/event.",,"What [is/was] the identifier for the adverse event(s) [associated with/related to this intervention/finding/event]?","Related Adverse Event Identifier","Char",,"This does not map directly to an SDTM variable. For the SDTM submission datasets, may be used to create the RELREC dataset to link this record with a record in the associated Adverse Events domain.","","Name of the identifying variable is stored in the SDTM variable IDVAR (e.g., --AENO) and the value of the SDTM variable IDVAR is stored in SDTM variable IDVARVAL. Example question text: What was the identifier for the adverse event associated with this concomitant medication?"
"CDASH Model v1.3","Identifiers",,"14","--MHNO","Related Medical History Event ID","A numerical identifier for the medical history event that is associated with/related to this intervention/finding/event.",,"What [is/was] the identifier for the medical history event(s) [associated with/related to this intervention/finding/event]?","Related Medical History Event Identifier","Char",,"This does not map directly to an SDTM variable. For the SDTM submission datasets, may be used to create the RELREC dataset to link this record with a record in the associated Medical History domain.","","Name of the identifying variable is stored as a value in the SDTM variable IDVAR (e.g., ""--MHNO"") and the value of the IDVAR is stored in the STDM variable IDVARVAL. Example question text prompt: What was the identifier for the medical history event associated with this concomitant medication?"
"CDASH Model v1.3","Identifiers",,"15","--PRNO","Related Procedure ID","A numerical identifier for the procedure that is associated with/related to this intervention/finding/event.",,"What [is/was] the identifier for the procedure(s) [associated with/related to this intervention/finding/event]?","Related Procedure Identifier","Char",,"This does not map directly to an SDTM variable. For the SDTM submission datasets, may be used to create the RELREC dataset to link this record with a record in the associated Procedures domain.","","Name of the identifying variable is stored as a value in the SDTM variable IDVAR (e.g., ""--PRNO"") and the value of the IDVAR is stored in the SDTM variable IDVARVAL. Example question text for an Adverse Event CRF: What was the identifier for the procedure associated with this adverse event?"
"CDASH Model v1.3","Identifiers",,"16","--CENO","Related Clinical Event ID","A numerical identifier for the clinical event that is associated with/related to this intervention/finding/event.",,"What [is/was] the identifier for the clinical event(s) [associated with/related to this intervention/finding/event]?","Related Clinical Event Identifier","Char",,"This does not map directly to an SDTM variable. For the SDTM submission datasets, may be used to create the RELREC dataset to link this record with a record in the associated Clinical Events domain.","","Name of the identifying variable is stored as a value in the SDTM variable IDVAR (""--CENO"") and the value of the IDVAR is stored in the SDTM variable IDVARVAL Example question text: What was the identifier for the clinical event associated with this procedure?"
"CDASH Model v1.3","Identifiers",,"17","SPDEVID","Sponsor Device Identifier","A sponsor-defined identifier for a device.",,"What [is/was] the sponsor identifier for the device?","Sponsor Device Identifier","Char","SPDEVID","Maps directly to the SDTM variable listed in the SDTM Target column.","","SPDEVID is a constructed variable consisting of elements that may not be available at the time of data capture (e.g., device type, manufacturer). Other device identifiers, such as serial number, may instead be used on the CRF. If this is the case, sponsors should use controlled terminology for the SPDEVID elements as variable names where possible. Sponsors should also ensure that, when necessary, those elements required for deriving SPDEVID are captured."
"CDASH Model v1.3","Identifiers",,"18","NHOID","Non-host Organism ID","The identifier for a non-host organism; should only be used when the organism is the subject of the test.",,"What [is/was] the Non-host Organism ID?","Non-host Organism ID","Char","NHOID","Maps directly to the SDTM variable listed in the SDTM Target column.","","This sponsor-defined identifier for a non-host organism should only be used when the organism is the subject of the test."
"CDASH Model v1.3","Identifiers",,"19","--BEATNO","ECG Beat Number","A sequence number that identifies the beat within an ECG.",,"What [is/was] the beat number?","ECG Beat Number","Num","--BEATNO","Maps directly to the SDTM variable listed in the SDTM Target column.","","Used in the EG domain only."
"CDASH Model v1.3","Associated Persons - Identifiers",,"1","APID","Associated Persons Identifier","The identifier for a single associated person, a group of associated persons, or a pool of associated persons.",,"What is the [associated person's/group of associated persons/pool of associated persons] identifier?","[Associated Person's/Group of Associated Persons/Pool of associated persons] Identifier","Char","APID","Maps directly to the SDTM variable listed in the SDTM Target column.","",
"CDASH Model v1.3","Associated Persons - Identifiers",,"2","RSUBJID","Related Subject or Pool Identifier","The identifier for the study subject/participant.",,"What [is/was] the related (study) [subject/participant] identifier?","Related [Subject/Participant] (Identifier)","Char","RSUBJID","Maps directly to the SDTM variable listed in the SDTM Target column.","","This may be derived/populated from the study subject's identifier as recorded on the subject Demographics CRF."
"CDASH Model v1.3","Associated Persons - Identifiers",,"3","RDEVID","Related Device Identifier","The Identifier for a related device.",,"What is the identifier for the related device?","Related Device Identifier","Char","RDEVID","Maps directly to the SDTM variable listed in the SDTM Target column.","","RDEVID will be populated with the SPDEVID of the related device"
"CDASH Model v1.3","Associated Persons - Identifiers",,"4","SREL","Subject, Device, or Study Relationship","The Identifier for a related subject or pool of subjects.",,"What is the associated person's relationship to the (study) [subject/participant]?","Relationship to (Study) [Subject/Participant]","Char","SREL","Maps directly to the SDTM variable listed in the SDTM Target column.","C100130","If RSUBJID is populated, describes the relationship of the associated person(s) identified in APID to the subject or pool identified in RSUBJID. \n If RDEVID is populated, describes the relationship of the associated person(s) identified in APID to the subject or pool identified in RDEVID. \n If RSUBJID and RDEVID are null, SREL describes the relationship of the associated person(s) identified in APID to the study identified in STUDYID."
"CDASH Model v1.3","Timing",,"1","VISITNUM","Visit Number","Clinical encounter number. Numeric version of VISIT can be used for sorting.",,"What is the visit number?","Visit Number","Num","VISITNUM","Maps directly to the SDTM variable listed in the SDTM Target column.","","This is not a data collection field that would appear on the CRF. This field may be populated by the sponsor's data collection system or derived from the variable VISIT. Note: Sponsors may have CDASH visit numbering or visit naming conventions to handle special circumstances (e.g., unscheduled visits). In these cases, the appropriate visit numbers and visit names may need to be populated when the SDTM submission datasets are created."
"CDASH Model v1.3","Timing",,"2","VISIT","Visit Name","Protocol-defined description of the clinical encounter. May be used in addition to VISITNUM and/or VISITDY as a text description of the clinical encounter.",,"What [is/was] the visit name?","[Visit]","Char","VISIT","Maps directly to the SDTM variable listed in the SDTM Target column.","","The name of the visit is typically preprinted on the CRF, and should match the name of the visit in the protocol. May be used to derive the SDTM variable VISITNUM. Note: Sponsors may have CDASH visit numbering or visit naming conventions to handle special circumstances (e.g., unscheduled visits). In these cases, the appropriate visit numbers and visit names may need to be populated when the SDTM submission datasets are created."
"CDASH Model v1.3","Timing",,"3","VISDAT","Visit Date","Date the clinical encounter occurred (or started).",,"What [is/was] the date of the visit?","(Visit) Date","Char",,"This field does not map directly to an SDTM variable. For the SDTMIG SV dataset, the SDTMIG variable SVSTDTC may be derived by concatenating all collected CDASH VISDAT and VISTIM components and populating the SDTM variable SVSTDTC in ISO 8601 format.","","This may be recorded in either the header of the CRF or in the body of the CRF. A date/time can be collected once for the whole visit using the Visit Date/Time field and applying that date/time to all of the observations at that visit. The date (--DTC) of a measurement, test, or observation can be determined from the date/time of visit (VISDAT/VISTIM) and then concatenating the CDASH VISDAT/VISTIM components, and populating the STDMIG variable --DTC in ISO 8601 format."
"CDASH Model v1.3","Timing",,"4","VISTIM","Visit Time","Time the clinical encounter took place (or started).",,"What [is/was] the (start) time of the visit?","(Visit) Time","Char",,"This field does not map directly to an SDTM variable. For the SDTMIG SV dataset, the SDTMIG variable SVSTDTC may be derived by concatenating all collected CDASH VISDAT and VISTIM components and populating the SDTM variable SVSTDTC in ISO 8601 format.","","This may be recorded in either the header of the CRF or in the body of the CRF. A date/time can be collected once for the whole visit using the Visit Date/Time field and applying that date/time to all of the observations at that visit. The date (--DTC) of a measurement, test, or observation can be determined from the date/time of visit (VISDAT/VISTIM). For SDTM submission datasets, concatenate CDASH VISDAT/VISTIM components, and populate the STDMIG variable --DTC in ISO 8601 format. May be used to populate SVSTDTC, and SVENDTC in the SDTMIG SV domain."
"CDASH Model v1.3","Timing",,"5","VISENDAT","Visit End Date","Date the clinical encounter ended.",,"What [is/was] the end date of the visit?","(Visit) End Date","Char",,"This field does not map directly to an SDTM variable. For the SDTM SV dataset, the SDTMIG variable SVENDTC may be derived by concatenating all collected CDASH VISENDAT and VISENTIM components and populating the SDTM variable SVENDTC in ISO 8601 format.","","This may be recorded in either the header of the CRF or in the body of the CRF. This is the end date of the visit. This may be useful when a study extends over 2 or more days."
"CDASH Model v1.3","Timing",,"6","VISENTIM","Visit End Time","Time the clinical encounter ended.",,"What [is/was] the end time of the visit?","(Visit) End Time","Char",,"This field does not map directly to an SDTM variable. For the SDTM SV dataset, the SDTMIG variable SVENDTC may be derived by concatenating all collected CDASH VISENDAT and VISENTIM components and populating the SDTM variable SVENDTC in ISO 8601 format.","","This may be recorded in either the header of the CRF or in the body of the CRF. This is the end time of the visit, and may be useful when a study extends over 2 or more days."
"CDASH Model v1.3","Timing",,"7","EPOCH","Epoch","Name of the trial epoch with which this element of the arm is associated.",,"What [is/was] the [study/trial] [period/phase/sponsor-defined phrase] (for this [event/intervention/finding])?","[Study/Trial] Period","Char","EPOCH","Maps directly to the SDTM variable listed in the SDTM Target column.","C99079","If the same information is collected more than once in different periods/parts of a study (e.g., Disposition), EPOCH may be needed to differentiate these parts. Typically, the trial epoch will be preprinted on the CRF as the title of the page. See SDTMIG Section 4.1.3.1, EPOCH Variable Guidance, for additional information."
"CDASH Model v1.3","Timing",,"8","--DAT","Collection Date","Collection date of an observation.",,"What [is/was] the date the [event or intervention] [is/was] collected?; What [is/was] the (start) date (of the [Finding])?","[Event/Intervention] Collection Date; [Finding] (Start) Date","Char","--DTC","This field does not map directly to an SDTM variable. For the SDTM dataset, concatenate all collected CDASH DATE and TIME components and populate the SDTM variable --DTC in ISO 8601 format. Section 4.1.4.1 of the FDA Study Data Technical Conformance Guidea indicates that when dates have the role of a timing variable, the matching Study Day variables (--DY, --STDY, or --ENDY, respectively) should be included in the SDTM dataset.","","This is a generic DATE field that can be implemented in a system that will store partial dates. Use this for date of data collection, visit date, visit start date, point-in-time collection (e.g., vital signs measurements, lab sample collection date), or start date for interval collection of measurements or tests (e.g., start date of a 24-hour urine collection). Section 4.1.4.1 of the FDA Study Data Technical Conformance Guide v2.2a indicates that when dates have the role of a timing variable, the matching Study Day variables (--DY, --STDY, or --ENDY, respectively) are included in the SDTM dataset."
"CDASH Model v1.3","Timing",,"9","--DATDD","Collection Day","Collection day of an observation.",,"What [is/was] the day the [event or intervention] [is/was] collected?; What [is/was] was the (start) day (of the [Finding])?","[Event/Intervention] Collection Day; [Finding] (Start) Day","Char","--DTC","This field does not map directly to an SDTM variable. For the SDTM dataset, concatenate all collected CDASH DATE and TIME components and populate the SDTM variable --DTC in ISO 8601 format. Section 4.1.4.1 of the FDA Study Data Technical Conformance Guidea indicates that when dates have the role of a timing variable, the matching Study Day variables (--DY, --STDY, or --ENDY, respectively) should be included in the SDTM dataset.","","This is a generic DAY (DD) field that can be implemented in a system that will not store partial dates. Use this for date of data collection, visit date, visit start date, point-in-time collection (e.g., vital signs measurements, lab sample collection date), or start date for interval collection of measurements or tests (e.g., start date of a 24-hour urine collection)."
"CDASH Model v1.3","Timing",,"10","--DATMO","Collection Month","Collection month of an observation.",,"What [is/was] the month the [event or Intervention] [is/was] collected?; What [is/was] the (start) month (of the [Finding])?","[Event/Intervention] Collection Month; [Finding] (Start) Month","Char","--DTC","This field does not map directly to an SDTM variable. For the SDTM dataset, concatenate all collected CDASH DATE and TIME components and populate the SDTM variable --DTC in ISO 8601 format. Section 4.1.4.1 of the FDA Study Data Technical Conformance Guidea indicates that when dates have the role of a timing variable, the matching Study Day variables (--DY, --STDY, or --ENDY, respectively) should be included in the SDTM dataset.","","This is a generic MONTH (MO) field that can be implemented in a system that will not store partial dates. Use this for date of collection, visit date, visit start date, point-in-time collection (e.g., vital signs measurements, lab sample collection date), or start date for interval collection of measurements or tests (e.g., start date of a 24-hour urine collection)."
"CDASH Model v1.3","Timing",,"11","--DATYY","Collection Year","Collection year of an observation.",,"What [is/was] the year the [event or intervention] [is/was] collected?; What [is/was] the (start) year (of the [Finding])?","[Event/Intervention] Collection Year; [Finding] (Start) Year","Char","--DTC","This field does not map directly to an SDTM variable. For the SDTM dataset, concatenate all collected CDASH DATE and TIME components and populate the SDTM variable --DTC in ISO 8601 format. Section 4.1.4.1 of the FDA Study Data Technical Conformance Guidea indicates that when dates have the role of a timing variable, the matching Study Day variables (--DY, --STDY, or --ENDY, respectively) should be included in the SDTM dataset.","","This is a generic YEAR (YY) field that can be implemented in a system that will not store partial dates. Use this for date of data collection, visit date, visit start date, point-in-time collection (e.g., vital signs measurements, lab sample collection date), or start date for interval collection of measurements or tests (e.g., start date of a 24-hour urine collection)."
"CDASH Model v1.3","Timing",,"12","--TIM","Collection Time","Collection time of an observation.",,"What [is/was] the time the [event or intervention] [is/was] collected?; What [is/was] the (start) time (of the [Finding])?","[Event/Intervention] Collection Time; [Finding] (Start) Time","Char","--DTC","This field does not map directly to an SDTM variable. For the SDTM dataset, concatenate all collected CDASH DATE and TIME components and populate the SDTM variable --DTC in ISO 8601 format. Section 4.1.4.1 of the FDA Study Data Technical Conformance Guidea indicates that when dates have the role of a timing variable, the matching Study Day variables (--DY, --STDY, or --ENDY, respectively) should be included in the SDTM dataset.","","This is a generic TIME (TIM) field that can be implemented in a system that will store partial times. Use this for time of data collection, visit time, visit start time, point-in-time collection (e.g., vital signs measurements, lab sample collection time), or start time for interval collection of measurements or tests (e.g., start time of a 24-hour urine collection)."
"CDASH Model v1.3","Timing",,"13","--TIMHR","Collection Hour","Collection hour of an observation.",,"What [is/was] the hour the [event or intervention] [is/was] collected?; What [is/was] the (start) hour (of the [Finding])?","[Event/Intervention] Collection Hour; [Finding] (Start) Hour","Char","--DTC","This field does not map directly to an SDTM variable. For the SDTM dataset, concatenate all collected CDASH DATE and TIME components and populate the SDTM variable --DTC in ISO 8601 format. Section 4.1.4.1 of the FDA Study Data Technical Conformance Guidea indicates that when dates have the role of a timing variable, the matching Study Day variables (--DY, --STDY, or --ENDY, respectively) should be included in the SDTM dataset.","","This is a generic HOUR (HR) field that can be implemented in a system that will not store partial times. Use this for time of data collection, visit time, visit start time, point-in-time collection (e.g., vital signs measurements, lab sample collection time), or start time for interval collection of measurements or tests (e.g., start time of a 24-hour urine collection)."
"CDASH Model v1.3","Timing",,"14","--TIMMI","Collection Minute","Collection minute of an observation.",,"What [is/was] the minute the [event or intervention] [is/was] collected?; What [is/was] the (start) minute (of the [Finding])?","[Event/Intervention] Collection Minute; [Finding] (Start) Minute","Char","--DTC","This field does not map directly to an SDTM variable. For the SDTM dataset, concatenate all collected CDASH DATE and TIME components and populate the SDTM variable --DTC in ISO 8601 format. Section 4.1.4.1 of the FDA Study Data Technical Conformance Guidea indicates that when dates have the role of a timing variable, the matching Study Day variables (--DY, --STDY, or --ENDY, respectively) should be included in the SDTM dataset.","","This is a generic MINUTE (MI) field that can be implemented in a system that will not store partial times. Use this for time of data collection, visit time, visit start time, point-in-time collection (e.g., vital signs measurements, lab sample collection time), or start time for interval collection of measurements or tests (e.g., start time of a 24-hour urine collection)."
"CDASH Model v1.3","Timing",,"15","--TIMSS","Collection Second","Collection second of an observation.",,"What [is/was] the second the [event or intervention] [is/was] collected?; Or What [is/was] the (start) second (of the [Finding])?","[Event/Intervention] Collection Second; [Finding] (Start) Second","Char","--DTC","This field does not map directly to an SDTM variable. For the SDTM dataset, concatenate all collected CDASH DATE and TIME components and populate the SDTM variable --DTC in ISO 8601 format. Section 4.1.4.1 of the FDA Study Data Technical Conformance Guidea indicates that when dates have the role of a timing variable, the matching Study Day variables (--DY, --STDY, or --ENDY, respectively) should be included in the SDTM dataset.","","This is a generic SECONDS (SS) field that can be implemented in a system that will not store partial times. Use this for time of data collection, visit time, visit start time, point in time collection (e.g., vital signs measurements, lab sample collection time), start time for interval collection of measurements or tests (e.g., start time of a 24-hour urine collection)."
"CDASH Model v1.3","Timing",,"16","--STDAT","Observation Start Date","Start date of an observation.",,"What [is/was] the ([intended/planned/actual]) ([event/intervention]) ([MHEVDTYP]/start/admission) date (of the observation)?","([Intended/Planned/Actual]) ([MHEVDTYP]/Start/Admission) Date","Char","--STDTC","This field does not map directly to an SDTM variable. For the SDTM dataset, concatenate all collected CDASH START DATE and TIME components and populate the SDTM variable --STDTC in ISO 8601 format. Section 4.1.4.1 of the FDA Study Data Technical Conformance Guidea indicates that when dates have the role of a timing variable, the matching Study Day variables (--DY, --STDY, or --ENDY, respectively) should be included in the SDTM dataset.","","This is a generic START DATE field that can be implemented in a system that will store partial dates. Use this for start date of events or interventions (e.g., AE start date, substance use start date), start date of interval dosing (e.g., date/time of infusion start), dates of protocol milestones (e.g., informed consent date), dates of Disposition events (e.g., date of study completion, date of discontinuation). The start date of a Findings class record is stored in the --DAT variable."
"CDASH Model v1.3","Timing",,"17","--STDD","Observation Start Day","Start day of an observation.",,"What [is/was] the ([intended/planned/actual]) ([event/intervention]) ([MHEVDTYP]/start/admission) day?","([Intended/Planned/Actual]) ([MHEVDTYP]/Start/Admission) Day","Char","--STDTC","This field does not map directly to an SDTM variable. For the SDTM dataset, concatenate all collected CDASH DATE and TIME components and populate the SDTM variable--STDTC in ISO 8601 format. Section 4.1.4.1 of the FDA Study Data Technical Conformance Guidea indicates that when dates have the role of a timing variable, the matching Study Day variables (--DY, --STDY, or --ENDY, respectively) should be included in the SDTM dataset.","","This is a generic START DAY (STDD) field that can be implemented in a system that will not store partial dates. Use this for start date of events or interventions (e.g., AE start date, substance use start date), start date of interval dosing (e.g., date/time of infusion start), dates of protocol milestones (e.g., informed consent date), dates of Disposition events (e.g., date of study completion, date of discontinuation)."
"CDASH Model v1.3","Timing",,"18","--STMO","Observation Start Month","Start month of an observation.",,"What [is/was] the ([intended/planned/actual]) ([event/intervention]) ([MHEVDTYP]/start/admission) month?","([Intended/Planned/Actual]) ([MHEVDTYP]/Start/Admission) Month","Char","--STDTC","This field does not map directly to an SDTM variable. For the SDTM dataset, concatenate all collected CDASH DATE and TIME components and populate the SDTM variable --STDTC in ISO 8601 format. Section 4.1.4.1 of the FDA Study Data Technical Conformance Guidea indicates that when dates have the role of a timing variable, the matching Study Day variables (--DY, --STDY, or --ENDY, respectively) should be included in the SDTM dataset.","","This is a generic START MONTH (STMO) field that can be implemented in a system that will not store partial dates. Use this for start date of events or interventions (e.g., AE start date, substance use start date), start date of interval dosing (e.g., date/time of infusion start), dates of protocol milestones (e.g., informed consent date), dates of Disposition events (e.g., date of study completion, date of discontinuation)."
"CDASH Model v1.3","Timing",,"19","--STYY","Observation Start Year","Start year of an observation.",,"What [is/was] the ([intended/planned/actual]) ([event/intervention]) ([MHEVDTYP]/start/admission) year?","([Intended/Planned/Actual]) ([MHEVDTYP]/Start/Admission) Year","Char","--STDTC","This field does not map directly to an SDTM variable. For the SDTM dataset, concatenate all collected CDASH START DATE and TIME components and populate the SDTM variable --STDTC in ISO 8601 format. Section 4.1.4.1 of the FDA Study Data Technical Conformance Guidea indicates that when dates have the role of a timing variable, the matching Study Day variables (--DY, --STDY, or --ENDY, respectively) should be included in the SDTM dataset.","","This is a generic START YEAR (STYY) field that can be implemented in a system that will not store partial dates. Use this for start date of events of interventions (e.g., AE start date, substance use start date), start date of interval dosing (e.g., date/time of infusion start), dates of protocol milestones (e.g., informed consent date), dates of Disposition events (e.g., date of study completion, date of discontinuation)."
"CDASH Model v1.3","Timing",,"20","--STTIM","Observation Start Time","Start time of an observation.",,"What [is/was] the ([intended/planned/actual]) ([event/intervention]) ([MHEVDTYP]/start/admission) time?","([Intended/Planned/Actual]) ([MHEVDTYP]/Start/Admission) Time","Char","--STDTC","This field does not map directly to an SDTM variable. For the SDTM dataset, concatenate all collected CDASH START DATE and TIME components and populate the SDTM variable --STDTC in ISO 8601 format. Section 4.1.4.1 of the FDA Study Data Technical Conformance Guidea indicates that when dates have the role of a timing variable, the matching Study Day variables (--DY, --STDY, or --ENDY, respectively) should be included in the SDTM dataset.","","This is a generic START TIME field that can be implemented in a system that will store partial dates. Use this for start time of events or interventions (e.g., AE start time, substance use start time), start time of interval dosing (e.g., time of infusion start), time of protocol milestones (e.g., informed consent time), time of Disposition events (e.g., time of study completion, time of discontinuation)."
"CDASH Model v1.3","Timing",,"21","--STHR","Observation Start Hour","Start hour of an observation.",,"What [is/was] the ([intended/planned/actual]) ([event/intervention]) ([MHEVDTYP]/start/admission) hour?","([Intended/Planned/Actual]) ([MHEVDTYP]/Start/Admission) Hour","Char","--STDTC","This field does not map directly to an SDTM variable. For the SDTM dataset, concatenate all collected CDASH START DATE and TIME components and populate the SDTM variable --STDTC in ISO 8601 format. Section 4.1.4.1 of the FDA Study Data Technical Conformance Guidea indicates that when dates have the role of a timing variable, the matching Study Day variables (--DY, --STDY, or --ENDY, respectively) should be included in the SDTM dataset.","","This is a generic START HOUR (STHR) field that can be implemented in a system that will not store partial dates. Use this for start time of events or interventions (e.g., AE start time, substance use start time), start time of interval dosing (e.g., time of infusion start), time of protocol milestones (e.g., informed consent time), time of Disposition events (e.g., time of study completion, time of discontinuation)."
"CDASH Model v1.3","Timing",,"22","--STMI","Observation Start Minute","Start minute of an observation.",,"What [is/was] the ([intended/planned/actual]) ([event/intervention]) ([MHEVDTYP]/start/admission) minute?","([Intended/Planned/Actual]) ([MHEVDTYP]/Start/Admission) Minute","Char","--STDTC","This field does not map directly to an SDTM variable. For the SDTM dataset, concatenate all collected CDASH START DATE and TIME components and populate the SDTM variable --STDTC in ISO 8601 format. Section 4.1.4.1 of the FDA Study Data Technical Conformance Guidea indicates that when dates have the role of a timing variable, the matching Study Day variables (--DY, --STDY, or --ENDY, respectively) should be included in the SDTM dataset.","","This is a generic START MINUTE (STMI) field that can be implemented in a system that will not store partial dates. Use this for time of events or interventions (e.g., AE start time, substance use start time), start time of interval dosing (e.g., time of infusion start), time of protocol milestones (e.g., informed consent time), time of Disposition events (e.g., time of study completion, time of discontinuation)."
"CDASH Model v1.3","Timing",,"23","--STSS","Observation Start Second","Start second of an observation.",,"What [is/was] the ([intended/planned/actual]) ([event/intervention]) ([MHEVDTYP]/start/admission) second?","([Intended/Planned/Actual]) ([MHEVDTYP]/Start/Admission) Second \n","Char","--STDTC","This field does not map directly to an SDTM variable. For the SDTM dataset, concatenate all collected CDASH START DATE and TIME components and populate the SDTM variable --STDTC in ISO 8601 format. Section 4.1.4.1 of the FDA Study Data Technical Conformance Guidea indicates that when dates have the role of a timing variable, the matching Study Day variables (--DY, --STDY, or --ENDY, respectively) should be included in the SDTM dataset.","","This is a generic START SECOND (STSS) field that can be implemented in a system that will not store partial dates. Use this for time of events or interventions (e.g., AE start time, substance use start time), start time of interval dosing (e.g., time of infusion start), time of protocol milestones (e.g., informed consent time), time of Disposition events (e.g., time of study completion, time of discontinuation)."
"CDASH Model v1.3","Timing",,"24","--ENDAT","Observation End Date","End date of an observation.",,"What [is/was] the ([intended/planned/actual]) ([event/intervention/finding]) ([end/discharge/stop]) date (of the observation)?","([Intended/Planned/Actual]) ([End/Discharge/Stop]) Date","Char","--ENDTC","This field does not map directly to an SDTM variable. For the SDTM dataset, concatenate all collected CDASH End DATE and TIME components and populate the SDTM variable --ENDTC in ISO 8601 format. Section 4.1.4.1 of the FDA Study Data Technical Conformance Guidea indicates that when dates have the role of a timing variable, the matching Study Day variables (--DY, --STDY, or --ENDY, respectively) should be included in the SDTM dataset.","","This is a generic END DATE field that can be implemented in a system that will store partial dates. Use this for end date of events (e.g., AE end date) or interventions (e.g., CM end date), end date of interval dosing (e.g., date of infusion end), end visit date, or end date for interval collection of measurements or tests (e.g., end date of 24-hour urine collection)."
"CDASH Model v1.3","Timing",,"25","--ENDD","Observation End Day","End day of an observation.",,"What [is/was] the ([intended/planned/actual]) ([event/intervention/finding]) ([end/discharge/stop]) day (of the observation)?","([Intended/Planned/Actual]) ([End/Discharge/Stop]) Day","Char","--ENDTC","This field does not map directly to an SDTM variable. For the SDTM dataset, concatenate all collected CDASH End DATE and TIME components and populate the SDTM variable --ENDTC in ISO 8601 format. Section 4.1.4.1 of the FDA Study Data Technical Conformance Guidea indicates that when dates have the role of a timing variable, the matching Study Day variables (--DY, --STDY, or --ENDY, respectively) should be included in the SDTM dataset.","","This is a generic END DAY (ENDD) field that can be implemented in a system that will not store partial dates. Use this for end date of events (e.g., AE end date) or interventions (e.g., CM end date), end date of interval dosing (e.g., date of infusion end), end visit date, or end date for interval collection of measurements or tests (e.g., end date of 24-hour urine collection)."
"CDASH Model v1.3","Timing",,"26","--ENMO","Observation End Month","End month of an observation.",,"What [is/was] the ([intended/planned/actual]) ([event/intervention/finding]) ([end/discharge/stop]) month (of the observation)?","([Intended/Planned/Actual]) ([End/Discharge/Stop]) Month","Char","--ENDTC","This field does not map directly to an SDTM variable. For the SDTM dataset, concatenate all collected CDASH End DATE and TIME components and populate the SDTM variable --ENDTC in ISO 8601 format. Section 4.1.4.1 of the FDA Study Data Technical Conformance Guidea indicates that when dates have the role of a timing variable, the matching Study Day variables (--DY, --STDY, or --ENDY, respectively) should be included in the SDTM dataset.","","This is a generic END MONTH (ENMO) field that can be implemented in a system that will not store partial dates. Use this for end date of events (e.g., AE end date) or interventions (e.g., CM end date), end date of interval dosing (e.g., date of infusion end), end visit date, or end date for interval collection of measurements or tests (e.g., end date of 24-hour urine collection)."
"CDASH Model v1.3","Timing",,"27","--ENYY","Observation End Year","End year of an observation.",,"What [is/was] the ([intended/planned/actual]) ([event/intervention/finding]) ([end/discharge/stop]) year (of the observation)?","([Intended/Planned/Actual]) ([End/Discharge/Stop]) Year","Char","--ENDTC","This field does not map directly to an SDTM variable. For the SDTM dataset, concatenate all collected CDASH End DATE and TIME components and populate the SDTM variable --ENDTC in ISO 8601 format. Section 4.1.4.1 of the FDA Study Data Technical Conformance Guidea indicates that when dates have the role of a timing variable, the matching Study Day variables (--DY, --STDY, or --ENDY, respectively) should be included in the SDTM dataset.","","This is a generic END YEAR (ENYY) field that can be implemented in a system that will not store partial dates. Use this for end date of events (e.g., AE end date) or interventions (e.g., CM end date), end date of interval dosing (e.g., date of infusion end), end visit date, or end date for interval collection of measurements or tests (e.g., end date of 24-hour urine collection)."
"CDASH Model v1.3","Timing",,"28","--ENTIM","Observation End Time","End time of an observation.",,"What [is/was] the ([intended/planned/actual]) ([event/intervention/finding]) ([end/discharge/stop]) time (of the observation)?","([Intended/Planned/Actual]) ([End/Discharge/Stop]) Time","Char","--ENDTC","This field does not map directly to an SDTM variable. For the SDTM dataset, concatenate all collected CDASH End DATE and TIME components and populate the SDTM variable --ENDTC in ISO 8601 format. Section 4.1.4.1 of the FDA Study Data Technical Conformance Guidea indicates that when dates have the role of a timing variable, the matching Study Day variables (--DY, --STDY, or --ENDY, respectively) should be included in the SDTM dataset.","","This is a generic END TIME (ENTIM) field that can be implemented in a system that will store partial times. Use this for end time of events (e.g., AE end time) or Interventions (e.g., CM end time), end time of interval dosing (e.g., time of infusion end), end visit time, end time for interval collection of measurements or tests (e.g., end time of 24-hour urine collection)."
"CDASH Model v1.3","Timing",,"29","--ENHR","Observation End Hour","End hour of an observation.",,"What [is/was] the ([intended/planned/actual]) ([event/intervention/finding]) ([end/discharge/stop]) hour (of the observation)?","([Intended/Planned/Actual]) ([End/Discharge/Stop]) Hour","Char","--ENDTC","This field does not map directly to an SDTM variable. For the SDTM dataset, concatenate all collected CDASH End DATE and TIME components and populate the SDTM variable --ENDTC in ISO 8601 format. Section 4.1.4.1 of the FDA Study Data Technical Conformance Guidea indicates that when dates have the role of a timing variable, the matching Study Day variables (--DY, --STDY, or --ENDY, respectively) should be included in the SDTM dataset.","","This is a generic END HOUR (ENHR) field that can be implemented in a system that will not store partial times. Use this for end time of events (e.g., AE end time) or Interventions (e.g., CM end time), end time of interval dosing (e.g., time of infusion end), end visit time, end time for interval collection of measurements or tests (e.g., end time of 24-hour urine collection)."
"CDASH Model v1.3","Timing",,"30","--ENMI","Observation End Minute","End minute of an observation.",,"What [is/was] the ([intended/planned/actual]) ([event/intervention/finding]) ([end/discharge/stop]) minute (of the observation)?","([Intended/Planned/Actual]) ([End/Discharge/Stop]) Minute","Char","--ENDTC","This field does not map directly to an SDTM variable. For the SDTM dataset, concatenate all collected CDASH End DATE and TIME components and populate the SDTM variable --ENDTC in ISO 8601 format. Section 4.1.4.1 of the FDA Study Data Technical Conformance Guidea indicates that when dates have the role of a timing variable, the matching Study Day variables (--DY, --STDY, or --ENDY, respectively) should be included in the SDTM dataset.","","This is a generic END MINUTE (ENMI) field that can be implemented in a system that will not store partial times. Use this for time of events (e.g., AE end time) or Interventions (e.g., CM end time), end time of interval dosing (e.g., time of infusion end), end visit time, end time for interval collection of measurements or tests (e.g., end time of 24-hour urine collection)."
"CDASH Model v1.3","Timing",,"31","--ENSS","Observation End Second","End second of an observation.",,"What [is/was] the ([intended/planned/actual]) ([event/intervention/finding]) ([end/discharge/stop]) second (of the observation)?","([Intended/Planned/Actual]) ([End/Discharge/Stop]) Second","Char","--ENDTC","This field does not map directly to an SDTM variable. For the SDTM dataset, concatenate all collected CDASH End DATE and TIME components and populate the SDTM variable --ENDTC in ISO 8601 format. Section 4.1.4.1 of the FDA Study Data Technical Conformance Guidea indicates that when dates have the role of a timing variable, the matching Study Day variables (--DY, --STDY, or --ENDY, respectively) should be included in the SDTM dataset.","","This is a generic END SECOND (ENSS) field that can be implemented in a system that will not store partial dates. Use this for end time of events (e.g., AE end time) or Interventions (e.g., CM end time), end time of interval dosing (e.g., time of infusion end), end visit time, end time for interval collection of measurements or tests (e.g., and time of 24-hour urine collection)."
"CDASH Model v1.3","Timing",,"32","--CDUR","Collected Duration","Collected duration of an event, intervention, or finding. Used only if collected on the CRF and not derived.",,"What [is/was] the duration of the [event/intervention]?","Duration","Char","--DUR","This field does not map directly to an SDTM variable. For the SDTM dataset, concatenate the collected CDASH duration and the CDASH duration unit components and populate the SDTM variable --DUR in ISO 8601 period format.","","Use only if collected on the CRF and not derived."
"CDASH Model v1.3","Timing",,"33","--CDURU","Collected Duration Unit","The unit of time associated with the collected duration of an event, intervention, or finding.",,"What [is/was] the duration unit of the [event/intervention]?","[Duration Unit]","Char","--DUR","This field does not map directly to an SDTM variable. For the SDTM dataset, concatenate the collected CDASH duration and the CDASH duration unit components and populate the SDTM variable --DUR in ISO 8601 period format.","C71620","Use only if collected on the CRF and not derived."
"CDASH Model v1.3","Timing",,"34","--PRIOR","Prior","An indication whether the event/intervention/finding started or occurred prior to a specified time point.",,"Was the [--TRT/Intervention] [taken/performed/used/administered/consumed/started/occurred] prior to a [specified timepoint]?; Did the [--TERM/event topic/--TRT/Intervention/Finding] [start/occur] prior to [specified timepoint]?","[Taken/Performed/Used/Administered/Consumed/Started/Occurred] Prior to a [specified timepoint]","Char","--STRF; --STRTPT","This does not map directly to an SDTM variable. May be used to populate a value into an SDTM relative timing variable such as --STRF or --STRTPT. When populating --STRF, or --STRTPT, if the value of the CDASH field --PRIOR is ""Y"" a value from the CDISC CT (STENRF) may be used. When --PRIOR refers to the Study Reference Period (defined in DM.RFSTDTC to DM.RFENDTC) the SDTM variable --STRF should be populated. When --PRIOR is compared to another timepoint, the SDTM variables --STRTPT and --STTPT should be used. Note: --STRTPT must refer to the time point anchor described in --STTPT.","C66742","The CDASH field --PRIOR allows specific question text and prompt about interventions, events or findings that were prior to a specified timepoint. --PRIOR is used in conjunction with either a reference timepoint (--STTPT, --ENTPT) or the Study Reference Period (described as RFSTDTC to RFENDTC). See CDASHIG Section 3.7 for more information."
"CDASH Model v1.3","Timing",,"35","--TPT","Planned Time Point Name","Text description of time when a measurement or observation should be taken, as defined in the protocol. This may be represented as an elapsed time relative to a fixed reference point (e.g., time of last dose). See --TPTNUM and --TPTREF.",,"What [is/was] the planned time point [of the/for the] [measurement/observation/collection]?","[Planned Time Point Name]","Char","--TPT","Maps directly to the SDTM variable listed in the SDTM Target column. See the SDTMIG for additional information on representing time points. SDTM time point anchors --TPTREF (text description) and --RFTDTC (date/time) may be needed, as well as SDTM variables --TPTNUM, --ELTM.","","Planned time point names are needed to differentiate multiple sequential assessments. It is recommended that time point names be preprinted on the CRF rather than collected in a free-text field. If the form is laid out as a grid, then words such as Planned Time Point can be included as the column header. In the SDTM submission dataset, time points can be represented using the time point variables --TPT, --TPTNUM,-- ELTM. See the SDTMIG for additional information."
"CDASH Model v1.3","Timing",,"36","--TPTNUM","Planned Time Point Number","Numeric version of planned time point, used in sorting.",,"What [is/was] the planned time point number [of the/for the] [measurement/observation/collection]?","[Planned Time Point Number]","Num","--TPTNUM","Maps directly to the SDTM variable listed in the SDTM Target column. See SDTMIG for additional information on representing time points. SDTM time point anchors --TPTREF (text description) and --RFTDTC (date/time) may be needed, as well as SDTM variables --TPTNUM, --ELTM.","","Planned time point numbers may be needed to differentiate multiple sequential assessments. If collected, it is recommended that time point numbers be preprinted on the CRF. In the SDTM submission dataset, time points can be represented using the time point variables --TPT, --TPTNUM,-- ELTM. See SDTMIG for additional information."
"CDASH Model v1.3","Timing",,"37","--TPTREF","Time Point Reference","Description of the fixed reference point referred to by --ELTM, --TPTNUM, and --TPT.",,"What is the description of the fixed reference point?","[Reference Time Point]","Char","--TPTREF","Maps directly to the SDTM variable listed in the SDTM Target column.","","Planned reference point referred to by time point variables --TPT, TPTNUM, --ELTM. See SDTMIG for additional information. This would most commonly be prespecified on the CRF, and not a question to which the site would provide an answer."
"CDASH Model v1.3","Timing",,"38","--RFTDAT","Reference Time Point Date","Date for a fixed reference time point defined by --TPTREF.",,"What was the date of the [Reference Time point]?","[Reference Time point]","Char","--RFTDTC","This field does not map directly to an SDTM variable. For the SDTM dataset, the SDTMIG variable --RFTDTC is derived by concatenating all collected CDASH --RFTDAT, and --RFTTIM components and populating the SDTM variable --RFTDTC in ISO 8601 format.","","Date of the fix reference time point defined by --TPTREF"
"CDASH Model v1.3","Timing",,"39","--RFTTIM","Reference Time Point Time","Time for a fixed reference time point defined by --TPTREF.",,"What was the time of the [Reference Time point]?","[Reference Time point]","Char","--RFTDTC","This field does not map directly to an SDTM variable. For the SDTM dataset, the SDTMIG variable --RFTDTC is derived by concatenating all collected CDASH --RFTDAT, and --RFTTIM components and populating the SDTM variable --RFTDTC in ISO 8601 format.","","Time of the fix reference time point defined by --TPTREF"
"CDASH Model v1.3","Timing",,"40","--CEVINT","Collected Evaluation Interval","The collected or prepopulated text description of an interval associated with an observation such as a finding --TESTCD.",,"[Included as part of a protocol-specified question].","[Evaluation Interval]","Char","--EVINTX; --EVLINT","This field does not map directly to an SDTM variable. For the SDTM dataset, convert the collect evaluation interval into an ISO 8601 period format and populate the SDTM variable --EVLINT or if the interval can not be converted to an ISO format, populate the SDTM variable --EVINTX.","","The CDASH field --CEVINT (which is stored as free text) indicates a period of time during which an observation is being made or about which a question is being asked (e.g., ""During the past 6 months what was the subject's average sleep time?"" or ""Record any significant cardiovascular medical history over the subject's lifetime.""). The evaluation interval free text is defaulted in the hidden CDASH field --CEVINT (e.g., PAST 6 MONTHS, LIFETIME). Intervals that can be converted to ISO format (e.g., PAST 6 WEEKS), are mapped to the SDTM variable --EVLINT (-P6W), and free-text interval are mapped to --EVINTX (LIFETIME). See SDTMIG for additional information."
"CDASH Model v1.3","Timing",,"41","--EVLINT","Evaluation Interval","Duration of interval associated with an observation, such as a finding --TESTCD.",,,,"Char","--EVLINT","Maps directly to the SDTM variable listed in the SDTM Target column.","","The CDASH field --EVLINT indicates a period of time during which an observation is being made or about which a question is being asked which is represented in an ISO format. This would be a hidden field on the CRF or screen, not a question to which the site would provide an answer. The evaluation interval is included in the question text and the hidden CDASH field --EVLINT is defaulted using the appropriate ISO format for the interval. Example: ""During the past 6 months, what was the subject's average sleep time?"" is the question text; the hidden CDASH field --EVLINT would be ""-P6M"". See the SDTMIG for additional information."
"CDASH Model v1.3","Timing",,"42","DTHDAT","Death Date","Date of death for any subject who died.",,"What [is/was] the subject's date of death?","Death Date","Char","DTHDTC","This field does not map directly to an SDTM variable. For the SDTM dataset, concatenate all collected CDASH DATE and TIME components and populate the SDTM variable DM.DTHDTC in ISO 8601 format.","","The CDASH Model defines Death Date as a timing variable. It is not included as a timing variable in the SDTMIG. It may be collected on any CRF deemed appropriate by the sponsor, but should only be collected once. The SDTM variables DTHDTC and DTHFL are mapped to the DM domain during the SDTM submission dataset creation process. Death Date may be mapped to other SDTM domains (e.g., DS), as deemed appropriate by the sponsor. Death Date can be collected as a single field, or as 3 fields (DTHMO, DTHDD and DTHYY)."
"CDASH Model v1.3","Timing",,"43","DTHDD","Death Day","Day of death for any subject who died.",,"What [is/was] the subject's day of death?","Death Day","Char","DTHDTC","This field does not map directly to an SDTM variable. For the SDTM dataset, concatenate all collected CDASH DATE and TIME components and populate the SDTM variable DM.DTHDTC in ISO 8601 format.","","The CDASH Model defines Death Date as a timing variable. It is not included as a timing variable in the SDTMIG. It may be collected on any CRF deemed appropriate by the sponsor. The SDTM variables DTHDTC and DTHFL are mapped to the DM domain during the SDTM submission dataset creation process. Death Date may be mapped to other SDTM domains (e.g., DS), as deemed appropriate by the sponsor. Death Date can be collected as a single field, or as 3 fields (DTHMO, DTHDD and DTHYY)."
"CDASH Model v1.3","Timing",,"44","DTHMO","Death Month","Month of death for any subject who died.",,"What [is/was] the subject's month of death?","Death Month","Char","DTHDTC","This field does not map directly to an SDTM variable. For the SDTM dataset, concatenate all collected CDASH DATE and TIME components and populate the SDTM variable DM.DTHDTC in ISO 8601 format.","","The CDASH Model defines Death Date as a timing variable. It is not included as a timing variable in the SDTMIG. It may be collected on any CRF deemed appropriate by the sponsor. The SDTM variables DTHDTC and DTHFL are mapped to the DM domain during the SDTM submission dataset creation process. Death Date may be mapped to other SDTM domains (e.g., DS), as deemed appropriate by the sponsor. Death Date can be collected as a single field, or as 3 fields (DTHMO, DTHDD and DTHYY)."
"CDASH Model v1.3","Timing",,"45","DTHYY","Death Year","Year of death for any subject who died.",,"What [is/was] the subject's year of death?","Death Year","Char","DTHDTC","This field does not map directly to an SDTM variable. For the SDTM dataset, concatenate all collected CDASH DATE and TIME components and populate the SDTM variable DM.DTHDTC in ISO 8601 format.","","The CDASH Model defines Death Date as a timing variable. It is not included as a timing variable in the SDTMIG. It may be collected on any CRF deemed appropriate by the sponsor. The SDTM variables DTHDTC and DTHFL are mapped to the DM domain during the SDTM submission dataset creation process. Death Date may be mapped to other SDTM domains (e.g., DS), as deemed appropriate by the sponsor. Death Date can be collected as a single field, or as 3 fields (DTHMO, DTHDD and DTHYY)."
"CDASH Model v1.3","Timing",,"46","DTHTIM","Death Time","Time of death for any subject who died.",,"What [is/was] the subject's time of death?","Death Time","Char","DTHDTC","This field does not map directly to an SDTM variable. For the SDTM dataset, concatenate all collected CDASH DATE and TIME components and populate the SDTM variable DM.DTHDTC in ISO 8601 format.","","The CDASH Model defines Death Date as a timing variable. It is not included as a timing variable in the SDTMIG. It may be collected on any CRF deemed appropriate by the sponsor. The SDTM variables DTHDTC and DTHFL are mapped to the DM domain during the SDTM submission dataset creation process. Death Date may be mapped to other SDTM domains (e.g., DS), as deemed appropriate by the sponsor. Death Time can be collected as a single field, or as 2 fields. (DTHHR, DTHMI)."
"CDASH Model v1.3","Timing",,"47","DTHHR","Death Hour","Hour of death for any subject who died.",,"What [is/was] the subject's hour of death?","Hour of Death","Num","DTHDTC","This field does not map directly to an SDTM variable. For the SDTM dataset, concatenate all collected CDASH DATE and TIME components and populate the SDTM variable DM.DTHDTC in ISO 8601 format.","","The CDASH mModel defines Death Date as a timing variable. It is not included as a timing variable in the SDTMIG. It may be collected on any CRF deemed appropriate by the sponsor. The SDTM variables DTHDTC and DTHFL are mapped to the DM domain during the SDTM submission dataset creation process. Death Date may be mapped to other SDTM domains (e.g., DS), as deemed appropriate by the sponsor. Death Time can be collected as a single field, or as 2 fields. (DTHHR, DTHMI)."
"CDASH Model v1.3","Timing",,"48","DTHMI","Death Minute","Minute of death for any subject who died.",,"What [is/was] the subject's minute of death?","Minute of Death","Num","DTHDTC","This field does not map directly to an SDTM variable. For the SDTM dataset, concatenate all collected CDASH DATE and TIME components and populate the SDTM variable DM.DTHDTC in ISO 8601 format.","","The CDASH model defines Death Date as a timing variable. It is not included as a timing variable in the SDTMIG. It may be collected on any CRF deemed appropriate by the sponsor. The SDTM variables DTHDTC and DTHFL are mapped to the DM domain during the SDTM submission dataset creation process. Death Date may be mapped to other SDTM domains (e.g., DS), as deemed appropriate by the sponsor (e.g., DS). Death Time can be collected as a single field, or as 2 fields. (DTHHR, DTHMI)."
"CDASH Model v1.3","Timing",,"49","MIDS","Disease Milestone Instance Name","The name of a specific instance of a Disease Milestone Type (MIDSTYPE) described in the Trial Disease Milestones dataset.",,"What [is/was] the name of a the disease Milestone?","Disease Milestone Instance Name","Char","MIDS","Maps directly to the SDTM variable listed in the SDTM Target column.","","The name of a specific instance of a Disease Milestone Type (MIDSTYPE) described in the Trial Disease Milestones dataset. This will typically prespecified by the sponsor on the CRF."
"CDASH Model v1.3","Timing",,"50","RELMIDS","Temporal Relation to Milestone Instance","The temporal relationship of the observation to the Disease Milestone Instance Name in MIDS.",,"What [is/was] the [temporal relation to milestone Instance] ?","Temporal Relation to Milestone Instance","Char","RELMIDS","Maps directly to the SDTM variable listed in the SDTM Target column.","","The timing related to the disease milestone will be specified by the sponsor. Terms such as IMMEDIATELY BEFORE, AT TIME OF, AFTER may be used."
"CDASH Model v1.3","Timing",,"51","MIDSDAT","Disease Milestone Instance Date/Time","he start date/time of the Disease Milestone Instance Name in MIDS.",,"What [is/was] the date of the [Disease Milestone Instance]?","Disease Milestone Instance Date/Time","Char","MIDSDTC","This field does not map directly to an SDTM variable. For the SDTM dataset, concatenate all collected CDASH DATE and TIME components and populate the SDTM variable MIDSDTC in ISO 8601 format.","",
"CDASH Model v1.3","Timing",,"52","MIDSTIM","Disease Milestone Instance Date/Time","The start date/time of the disease milestone instance name in MIDS.",,"What [is/was] the time of the [Disease Milestone Instance]?","Disease Milestone Instance Date/Time","Char","MIDSDTC","This field does not map directly to an SDTM variable. For the SDTM dataset, concatenate all collected CDASH DATE and TIME components and populate the SDTM variable MIDSDTC in ISO 8601 format.","",
"CDASH Model v1.3","Timing",,"53","--STINT","Planned Start of Assessment Interval","The start of a planned assessment interval relative to a reference time point, represented in a standardized character format.",,"[A protocol-specified question]","Planned Start of Assessment Interval","Char","--STINT","Maps directly to the SDTM variable listed in the SDTM Target column.","","The reference time point is in --TPTREF. As this describes planned timing of an assessment, caution should be exercised when using outside of the Findings domains. In an Events or Interventions domain, it may refer to the interval over which --OCCUR is assessed. This would typically be prespecified or specified options provided based on the protocol."
"CDASH Model v1.3","Timing",,"54","--ENINT","Planned End of Assessment Interval","The end of a planned assessment interval relative to a reference time point, represented in a standardized character format.",,"[A protocol-specified question]","Planned End of Assessment Interval","Char","--ENINT","Maps directly to the SDTM variable listed in the SDTM Target column.","","The reference time point is in --TPTREF. As this describes planned timing of an assessment, caution should be exercised when using outside of the Findings domains. In an Events or Interventions domain, it may refer to the interval over which --OCCUR is assessed. This would typically be prespecified or specified options provided based on the protocol."
"CDASH Model v1.3","Timing",,"55","--PTFL","Point in Time Flag","An indication that the specimen was collected at a single point in time.",,"[Is/Was] the specimen collected at a single point in time?;Indicate whether the specimen was collected at a single time point.","Point in Time Flag","Char","--PTFL","Maps directly to the SDTM variable listed in the SDTM Target column.","C66742","Only in Findings class specimen-based domains: BS, CP, GF, IS, LB, MB, MS, MI, PC, PP. The value is ""Y"" or null."
"CDASH Model v1.3","Timing",,"56","--PDUR","Planned Duration","A planned duration of a finding.",,"What [is/was] the planned duration of the [specimen collection/finding] ?","Planned Duration","Char","--PDUR","Maps directly to the SDTM variable listed in the SDTM Target column.","","Only in Findings class specimen-based domains: BS, CP, GF, IS, LB, MB, MS, MI, PC, PP. For a sample-based finding, this could apply to the planned duration of specimen collection."
"CDASH Model v1.3","Events","AE","1","AEACNOYN","Any Other Actions Taken","An indication whether any other action(s) were taken in response to the adverse event, unrelated to study treatment dose changes, or whether other non-study treatments were given because of this adverse event.","true","Were any other actions taken in response to this adverse event?","Any Other Actions Taken","Char",,"Does not map to an SDTM variable. The SDTM annotated CRF indicates that this field is NOT SUBMITTED.","C66742","The intent/purpose of collecting this field is to help with data cleaning and monitoring. It provides verification that the AEACNOTH field on the CRF was deliberately left blank."
"CDASH Model v1.3","Events","AE","2","AERLNSYN","Related to Non-Study Treatment","An indication whether, in the investigator's opinion, the event may have been due to a treatment other than study treatment.","true","[Is/Was] this adverse event due to treatment other than study treatment?","Related to Non-Study Treatment","Char",,"Does not map to an SDTM variable.The SDTM annotated CRF indicates that this field is NOT SUBMITTED.","C66742","The intent/purpose of collecting this field is to help with data cleaning and monitoring. It provides verification that the CDASH AERELNST field on the CRF was deliberately left blank."
"CDASH Model v1.3","Events","AE","3","AESI","Adverse Event of Special Interest","An adverse event of special interest (serious or non-serious) is one of scientific and medical concern specific to the sponsor's product or program, for which ongoing monitoring and rapid communication by the investigator to the sponsor can be appropriate. Such an event might warrant further investigation in order to characterize and understand it. Depending on the nature of the event, rapid communication by the trial sponsor to other parties (e.g., regulators) might also be warranted.","true","[Is/Was] this event of special interest?","Adverse Event of Special Interest","Char",,"Does not map to an SDTM variable. The SDTM annotated CRF indicates that this field is NOT SUBMITTED.","C66742","This CDASH field may be used just to trigger other CRF pages, or to populate a value in AECAT or AESCAT. If submitted, this information could be submitted in a SUPP--.QVAL dataset where SUPP--.QNAM= ""AESI"" and SUPP--.QLABEL = ""Adverse Event of Special Interest"". Refer to the current SDTM and SDTMIG for instructions on placement of non-standard variables (NSVs) in SDTM domains."
"CDASH Model v1.3","Events","AE","4","AESINTV","Needs Intervention to Prevent Impairment","An indication whether an adverse event required medical or surgical intervention to preclude permanent impairment of a body function, or prevent permanent damage to a body structure, due to the use of a medical product.","true","Did the adverse event require intervention to prevent permanent impairment or damage resulting from the use of a medical product?","Needs Intervention to Prevent Impairment","Char","AESINTV","Maps directly to the SDTM variable listed in the SDTM Target column.","C66742","This criteria is used for SAEs associated with a medical product (e.g., device). Sponsors should follow requirements for the reporting of adverse events involving medical devices to health authorities."
